Yaw,Pitch,Roll,MagX,MagY,MagZ,AccelX,AccelY,AccelZ,GyroX,GyroY,GyroZ
-131.635,-031.880,+009.316,+0.288,+0.665,+2.536,-04.9910,-01.3360,-07.9220,+00.000847,-00.001031,-00.001069
-131.635,-031.882,+009.318,+0.293,+0.665,+2.525,-05.0040,-01.3130,-07.9520,+00.000918,-00.002262,+00.001443
-131.633,-031.883,+009.318,+0.288,+0.655,+2.531,-05.0050,-01.3140,-07.9360,+00.001375,-00.000251,+00.001426
-131.633,-031.885,+009.319,+0.284,+0.655,+2.536,-05.0240,-01.3140,-07.9730,+00.001481,-00.001000,+00.001418
-131.635,-031.886,+009.322,+0.288,+0.675,+2.525,-05.0200,-01.3040,-07.9480,+00.002262,-00.001026,-00.003119
-131.637,-031.887,+009.327,+0.288,+0.690,+2.536,-04.9910,-01.3210,-07.9240,+00.002564,-00.000875,-00.002503
-131.636,-031.886,+009.328,+0.288,+0.645,+2.509,-05.0030,-01.3250,-07.9400,+00.001414,+00.000059,+00.001681
-131.637,-031.887,+009.328,+0.284,+0.660,+2.531,-04.9800,-01.2940,-07.9240,+00.001233,-00.000560,+00.000746
-131.634,-031.888,+009.325,+0.288,+0.665,+2.536,-05.0150,-01.2890,-07.9500,-00.000047,-00.001845,+00.002526
-131.631,-031.892,+009.324,+0.284,+0.680,+2.525,-05.0200,-01.2840,-07.9330,+00.001650,-00.001147,-00.000043
-131.631,-031.893,+009.326,+0.284,+0.646,+2.531,-05.0210,-01.2910,-07.9670,+00.001679,-00.000565,-00.000469
-131.631,-031.896,+009.327,+0.279,+0.675,+2.530,-05.0330,-01.2830,-07.9110,+00.002052,-00.001961,+00.000877
-131.632,-031.899,+009.330,+0.279,+0.660,+2.503,-05.0080,-01.3140,-07.9330,+00.002957,-00.001214,-00.001674
-131.633,-031.903,+009.335,+0.284,+0.645,+2.514,-05.0120,-01.2900,-07.9630,+00.003818,-00.002934,+00.000375
-131.633,-031.908,+009.338,+0.288,+0.635,+2.504,-05.0150,-01.2930,-07.9190,+00.002742,-00.006492,+00.001787
-131.632,-031.915,+009.340,+0.293,+0.655,+2.536,-05.0260,-01.2930,-07.9440,+00.002933,-00.005485,+00.001480
-131.633,-031.920,+009.345,+0.284,+0.655,+2.525,-05.0120,-01.3110,-07.9510,+00.003611,-00.006850,+00.000878
-131.633,-031.928,+009.349,+0.293,+0.650,+2.520,-05.0250,-01.3310,-07.9400,+00.005268,-00.005523,-00.000482
-131.636,-031.935,+009.356,+0.293,+0.655,+2.515,-05.0260,-01.2720,-07.9200,+00.005758,-00.005248,-00.002006
-131.639,-031.938,+009.364,+0.293,+0.685,+2.520,-05.0060,-01.3130,-07.9550,+00.005886,-00.003444,-00.001495
-131.641,-031.943,+009.370,+0.293,+0.650,+2.520,-05.0180,-01.3140,-07.9380,+00.003379,-00.003948,-00.000646
-131.643,-031.949,+009.375,+0.302,+0.660,+2.521,-05.0210,-01.3290,-07.9410,+00.002504,-00.005133,-00.001546
-131.645,-031.954,+009.377,+0.298,+0.645,+2.537,-05.0520,-01.3130,-07.9500,+00.001178,-00.001370,-00.000787
-131.644,-031.953,+009.377,+0.288,+0.665,+2.541,-04.9940,-01.2880,-07.9430,+00.001435,+00.001073,+00.000093
-131.644,-031.954,+009.378,+0.302,+0.665,+2.521,-05.0050,-01.2950,-07.9080,+00.001658,-00.001268,+00.000951
-131.644,-031.955,+009.381,+0.293,+0.665,+2.520,-04.9890,-01.2900,-07.9330,+00.002418,-00.003227,-00.000808
-131.645,-031.959,+009.385,+0.288,+0.645,+2.531,-05.0050,-01.3030,-07.9500,+00.004884,-00.003117,-00.000170
-131.647,-031.962,+009.390,+0.288,+0.675,+2.514,-05.0100,-01.3210,-07.9500,+00.003828,-00.002878,+00.000414
-131.649,-031.966,+009.395,+0.284,+0.650,+2.509,-05.0110,-01.3080,-07.9530,+00.004647,-00.003533,-00.000749
-131.650,-031.972,+009.401,+0.284,+0.655,+2.525,-05.0410,-01.3190,-07.9430,+00.004417,-00.004553,-00.000605
-131.653,-031.975,+009.408,+0.293,+0.675,+2.515,-05.0290,-01.3040,-07.9560,+00.004541,-00.001805,-00.002762
-131.656,-031.979,+009.416,+0.293,+0.695,+2.525,-05.0170,-01.3060,-07.9240,+00.005650,-00.003880,-00.002501
-131.659,-031.982,+009.424,+0.284,+0.670,+2.541,-05.0280,-01.3150,-07.9290,+00.005659,-00.002549,-00.003299
-131.662,-031.984,+009.431,+0.293,+0.670,+2.515,-05.0250,-01.3390,-07.9340,+00.003257,-00.001974,-00.001814
-131.664,-031.987,+009.436,+0.284,+0.650,+2.514,-05.0280,-01.3310,-07.8940,+00.003186,-00.002907,-00.001271
-131.665,-031.991,+009.439,+0.284,+0.660,+2.541,-05.0310,-01.2960,-07.9440,+00.002069,-00.003810,+00.002702
-131.665,-031.997,+009.443,+0.298,+0.670,+2.531,-05.0190,-01.3220,-07.9000,+00.003779,-00.005108,+00.000512
-131.668,-032.003,+009.450,+0.288,+0.695,+2.509,-05.0510,-01.2910,-07.9140,+00.005707,-00.003269,-00.002230
-131.672,-032.007,+009.460,+0.284,+0.665,+2.552,-05.0390,-01.3180,-07.9410,+00.005362,-00.003516,-00.001894
-131.674,-032.010,+009.468,+0.284,+0.670,+2.514,-05.0200,-01.3320,-07.9570,+00.004739,-00.005498,+00.001628
-131.676,-032.018,+009.475,+0.288,+0.660,+2.525,-05.0330,-01.3180,-07.9330,+00.005001,-00.007089,-00.001374
-131.678,-032.025,+009.482,+0.298,+0.665,+2.542,-05.0290,-01.3220,-07.9340,+00.004853,-00.005086,-00.001401
-131.682,-032.031,+009.491,+0.293,+0.660,+2.499,-05.0270,-01.3220,-07.9180,+00.008078,-00.007001,-00.003273
-131.688,-032.042,+009.507,+0.293,+0.645,+2.504,-05.0530,-01.3410,-07.9180,+00.012382,-00.011556,-00.002577
-131.698,-032.053,+009.525,+0.298,+0.670,+2.536,-05.0400,-01.3180,-07.9160,+00.014590,-00.012000,-00.006604
-131.709,-032.063,+009.547,+0.293,+0.670,+2.515,-05.0310,-01.3280,-07.8940,+00.013494,-00.009424,-00.006890
-131.718,-032.074,+009.566,+0.288,+0.670,+2.531,-05.0120,-01.3460,-07.9160,+00.012769,-00.010172,-00.003296
-131.727,-032.084,+009.584,+0.288,+0.655,+2.525,-05.0460,-01.3390,-07.9240,+00.008862,-00.009163,-00.004335
-131.735,-032.093,+009.598,+0.293,+0.680,+2.509,-05.0480,-01.3400,-07.9210,+00.009495,-00.006606,-00.004111
-131.743,-032.098,+009.612,+0.293,+0.675,+2.509,-05.0540,-01.3390,-07.9230,+00.007807,-00.004687,-00.006678
-131.750,-032.102,+009.625,+0.298,+0.660,+2.526,-05.0590,-01.3350,-07.9220,+00.007695,-00.005577,-00.004629
-131.758,-032.105,+009.638,+0.293,+0.670,+2.509,-05.0370,-01.3330,-07.8950,+00.008580,-00.002378,-00.004780
-131.766,-032.105,+009.650,+0.293,+0.685,+2.531,-05.0520,-01.3400,-07.9140,+00.007820,-00.001067,-00.004539
-131.773,-032.106,+009.663,+0.288,+0.675,+2.531,-05.0450,-01.3610,-07.8790,+00.005838,-00.001642,-00.004904
-131.780,-032.109,+009.673,+0.293,+0.670,+2.515,-05.0260,-01.3610,-07.9170,+00.005622,-00.004999,-00.003848
-131.788,-032.111,+009.685,+0.293,+0.660,+2.526,-05.0390,-01.3710,-07.9080,+00.005217,-00.002041,-00.004244
-131.794,-032.112,+009.696,+0.293,+0.650,+2.536,-05.0410,-01.3750,-07.9170,+00.005867,-00.001037,-00.003093
-131.799,-032.112,+009.703,+0.293,+0.675,+2.531,-05.0400,-01.3500,-07.9050,+00.003519,-00.000240,-00.001890
-131.801,-032.111,+009.708,+0.288,+0.665,+2.504,-05.0390,-01.3620,-07.8940,+00.001453,+00.001627,-00.002197
-131.804,-032.107,+009.710,+0.293,+0.665,+2.515,-05.0400,-01.3700,-07.9170,-00.000421,+00.003632,-00.000821
-131.803,-032.104,+009.707,+0.302,+0.670,+2.510,-05.0440,-01.3410,-07.8970,-00.002200,+00.004415,+00.000482
-131.802,-032.100,+009.704,+0.293,+0.680,+2.536,-05.0420,-01.3660,-07.9280,-00.003628,+00.003736,+00.001536
-131.801,-032.095,+009.699,+0.293,+0.670,+2.531,-05.0370,-01.3450,-07.8930,-00.004230,+00.004926,+00.000968
-131.797,-032.090,+009.693,+0.293,+0.690,+2.515,-05.0240,-01.3490,-07.8830,-00.002684,+00.005528,+00.001083
-131.795,-032.088,+009.689,+0.298,+0.675,+2.531,-05.0610,-01.3670,-07.9100,-00.003272,+00.003554,+00.002054
-131.790,-032.084,+009.681,+0.288,+0.655,+2.515,-05.0410,-01.3860,-07.9280,-00.006626,+00.003957,+00.003810
-131.785,-032.080,+009.669,+0.298,+0.675,+2.520,-05.0500,-01.3590,-07.8960,-00.008337,+00.005102,+00.004541
-131.778,-032.074,+009.655,+0.302,+0.655,+2.526,-05.0280,-01.3330,-07.9200,-00.009815,+00.005483,+00.007177
-131.768,-032.068,+009.638,+0.288,+0.675,+2.536,-05.0520,-01.3250,-07.9420,-00.010782,+00.006888,+00.007208
-131.758,-032.062,+009.621,+0.298,+0.680,+2.536,-05.0440,-01.3510,-07.9190,-00.010178,+00.006790,+00.006064
-131.749,-032.056,+009.604,+0.298,+0.655,+2.537,-05.0600,-01.3470,-07.9390,-00.008813,+00.006753,+00.003692
-131.741,-032.049,+009.589,+0.284,+0.641,+2.525,-05.0580,-01.3280,-07.9310,-00.009354,+00.008544,+00.005348
-131.732,-032.042,+009.574,+0.293,+0.685,+2.515,-05.0390,-01.3620,-07.9360,-00.009894,+00.007582,+00.005878
-131.723,-032.034,+009.560,+0.293,+0.690,+2.525,-05.0180,-01.3580,-07.9650,-00.009707,+00.005265,+00.006213
-131.714,-032.027,+009.544,+0.298,+0.645,+2.542,-05.0360,-01.3380,-07.9280,-00.010638,+00.006348,+00.006440
-131.702,-032.022,+009.525,+0.293,+0.660,+2.526,-05.0270,-01.3190,-07.9130,-00.011135,+00.007829,+00.008181
-131.691,-032.014,+009.506,+0.279,+0.655,+2.530,-05.0250,-01.3200,-07.9570,-00.010297,+00.009192,+00.007134
-131.682,-032.005,+009.489,+0.284,+0.660,+2.531,-05.0090,-01.3210,-07.9770,-00.009757,+00.008363,+00.005798
-131.672,-031.997,+009.472,+0.288,+0.655,+2.525,-05.0220,-01.3160,-07.9070,-00.009050,+00.007399,+00.006161
-131.663,-031.990,+009.457,+0.288,+0.655,+2.525,-05.0160,-01.3210,-07.9490,-00.008073,+00.009588,+00.003795
-131.654,-031.982,+009.441,+0.288,+0.665,+2.542,-05.0220,-01.3090,-07.9210,-00.008547,+00.007903,+00.005816
-131.645,-031.974,+009.426,+0.288,+0.665,+2.515,-05.0180,-01.3120,-07.9330,-00.008369,+00.006588,+00.005673
-131.634,-031.969,+009.409,+0.288,+0.650,+2.531,-05.0310,-01.3310,-07.9620,-00.007556,+00.005725,+00.007134
-131.624,-031.966,+009.394,+0.288,+0.665,+2.536,-05.0240,-01.3110,-07.9330,-00.008587,+00.005548,+00.006175
-131.614,-031.962,+009.379,+0.302,+0.655,+2.515,-05.0210,-01.2920,-07.9550,-00.008864,+00.005753,+00.006594
-131.606,-031.959,+009.365,+0.288,+0.655,+2.536,-05.0340,-01.3030,-07.9400,-00.005899,+00.004708,+00.005226
-131.598,-031.956,+009.355,+0.275,+0.646,+2.536,-05.0140,-01.2990,-07.9160,-00.003897,+00.002264,+00.004735
-131.592,-031.956,+009.348,+0.288,+0.705,+2.520,-05.0180,-01.2930,-07.9490,-00.001929,+00.001366,+00.003945
-131.587,-031.957,+009.344,+0.288,+0.655,+2.525,-05.0080,-01.3230,-07.9340,-00.001519,+00.001337,+00.003143
-131.583,-031.955,+009.340,+0.293,+0.650,+2.531,-04.9900,-01.2910,-07.9270,-00.001501,+00.000271,+00.003657
-131.578,-031.957,+009.334,+0.288,+0.660,+2.515,-05.0160,-01.2690,-07.9320,-00.001276,-00.000312,+00.002725
-131.574,-031.957,+009.333,+0.284,+0.650,+2.504,-04.9990,-01.3150,-07.9400,-00.000275,-00.000852,+00.002368
-131.571,-031.960,+009.331,+0.288,+0.655,+2.547,-05.0300,-01.2930,-07.9400,-00.000666,-00.002649,+00.004009
-131.567,-031.963,+009.327,+0.293,+0.655,+2.526,-05.0100,-01.2800,-07.9060,+00.000567,-00.000846,+00.003488
-131.565,-031.966,+009.325,+0.284,+0.690,+2.525,-05.0220,-01.2650,-07.9200,-00.000311,+00.000125,+00.002184
-131.561,-031.966,+009.323,+0.288,+0.655,+2.542,-05.0190,-01.3210,-07.9720,-00.000356,-00.000799,+00.003547
-131.559,-031.968,+009.323,+0.293,+0.695,+2.520,-05.0070,-01.3040,-07.9550,+00.001246,-00.003570,+00.002367
-131.556,-031.972,+009.322,+0.298,+0.655,+2.499,-05.0280,-01.2940,-07.9400,+00.000774,-00.002571,+00.003477
-131.553,-031.975,+009.322,+0.298,+0.655,+2.537,-05.0240,-01.3070,-07.9690,+00.000385,-00.002771,+00.002559
-131.550,-031.978,+009.319,+0.293,+0.660,+2.526,-05.0190,-01.2910,-07.9530,+00.000500,-00.002320,+00.002030
-131.548,-031.982,+009.319,+0.284,+0.646,+2.536,-05.0160,-01.2880,-07.9210,+00.001511,-00.003054,+00.002343
-131.548,-031.987,+009.322,+0.284,+0.650,+2.520,-05.0160,-01.2850,-07.9200,+00.003144,-00.004276,-00.000050
-131.549,-031.992,+009.326,+0.298,+0.695,+2.509,-05.0020,-01.3110,-07.9300,+00.002767,-00.004724,+00.001962
-131.546,-031.996,+009.327,+0.293,+0.655,+2.504,-05.0170,-01.3040,-07.9200,+00.001382,-00.004267,+00.004092
-131.543,-032.003,+009.328,+0.293,+0.631,+2.526,-05.0320,-01.3020,-07.9550,+00.002750,-00.006247,+00.003294
-131.541,-032.011,+009.329,+0.298,+0.665,+2.526,-05.0380,-01.2950,-07.9460,+00.003376,-00.006622,+00.002329
-131.539,-032.020,+009.330,+0.298,+0.660,+2.510,-05.0710,-01.3010,-07.9290,+00.002729,-00.005542,+00.001326
-131.539,-032.026,+009.333,+0.288,+0.636,+2.520,-05.0120,-01.2960,-07.9450,+00.002002,-00.005501,+00.001024
-131.539,-032.033,+009.335,+0.288,+0.655,+2.509,-05.0240,-01.2940,-07.9180,+00.002119,-00.005975,+00.001552
-131.536,-032.041,+009.335,+0.298,+0.640,+2.504,-05.0530,-01.2970,-07.9550,+00.001963,-00.007232,+00.002110
-131.534,-032.048,+009.334,+0.288,+0.655,+2.542,-05.0310,-01.2950,-07.9250,+00.001144,-00.004968,+00.002776
-131.533,-032.053,+009.334,+0.284,+0.660,+2.498,-05.0260,-01.3090,-07.9270,+00.000995,-00.002883,+00.001782
-131.533,-032.057,+009.335,+0.293,+0.675,+2.531,-05.0310,-01.3080,-07.9580,+00.000541,-00.004870,+00.000473
-131.533,-032.062,+009.336,+0.293,+0.695,+2.547,-05.0440,-01.2790,-07.9470,+00.001650,-00.004710,+00.000254
-131.531,-032.066,+009.335,+0.288,+0.670,+2.525,-05.0470,-01.2870,-07.9520,+00.000225,-00.001690,+00.001244
-131.530,-032.067,+009.334,+0.298,+0.665,+2.526,-05.0100,-01.2930,-07.9370,+00.000086,-00.000486,+00.000811
-131.528,-032.070,+009.334,+0.302,+0.645,+2.521,-05.0170,-01.3170,-07.9230,+00.000329,-00.005179,+00.000221
-131.526,-032.075,+009.332,+0.284,+0.665,+2.520,-05.0400,-01.3290,-07.8970,+00.000780,-00.004136,+00.003455
-131.525,-032.083,+009.331,+0.298,+0.665,+2.537,-05.0710,-01.2750,-07.9280,+00.000698,-00.004452,-00.000102
-131.525,-032.086,+009.331,+0.284,+0.651,+2.542,-05.0440,-01.3120,-07.9370,+00.000822,-00.001221,+00.000936
-131.525,-032.088,+009.332,+0.298,+0.695,+2.509,-05.0390,-01.2970,-07.9360,+00.001650,-00.002547,-00.000686
-131.525,-032.089,+009.334,+0.298,+0.645,+2.521,-05.0590,-01.2920,-07.9280,+00.000906,-00.000664,-00.000028
-131.525,-032.091,+009.334,+0.298,+0.650,+2.521,-05.0280,-01.3110,-07.9350,+00.000140,-00.000831,-00.000225
-131.523,-032.092,+009.334,+0.284,+0.675,+2.514,-05.0280,-01.3260,-07.9640,-00.000558,-00.002192,+00.003125
-131.519,-032.094,+009.331,+0.288,+0.655,+2.515,-05.0260,-01.2960,-07.9450,-00.000379,-00.002133,+00.002711
-131.516,-032.096,+009.328,+0.302,+0.655,+2.542,-05.0410,-01.2880,-07.9060,-00.000331,-00.001946,+00.001799
-131.516,-032.100,+009.328,+0.288,+0.670,+2.515,-05.0300,-01.3370,-07.9250,+00.002205,-00.004163,+00.000762
-131.514,-032.106,+009.330,+0.284,+0.665,+2.520,-05.0390,-01.3120,-07.8970,+00.002373,-00.004274,+00.001566
-131.511,-032.114,+009.332,+0.293,+0.695,+2.536,-05.0650,-01.3150,-07.9040,+00.003851,-00.006127,+00.002601
-131.510,-032.122,+009.335,+0.302,+0.660,+2.532,-05.0610,-01.2890,-07.9440,+00.002878,-00.007349,+00.001934
-131.510,-032.128,+009.339,+0.298,+0.660,+2.488,-05.0520,-01.2700,-07.9140,+00.004926,-00.006757,+00.000461
-131.508,-032.135,+009.341,+0.284,+0.641,+2.552,-05.0190,-01.2900,-07.9250,+00.002429,-00.005811,+00.002803
-131.508,-032.141,+009.344,+0.298,+0.695,+2.520,-05.0230,-01.3000,-07.8880,+00.003352,-00.006323,+00.001414
-131.507,-032.152,+009.348,+0.298,+0.655,+2.504,-05.0460,-01.2940,-07.9020,+00.004652,-00.010476,+00.002106
-131.505,-032.165,+009.351,+0.293,+0.645,+2.537,-05.0470,-01.2700,-07.9080,+00.003600,-00.009587,+00.002697
-131.504,-032.174,+009.356,+0.298,+0.685,+2.510,-05.0480,-01.3170,-07.9200,+00.004018,-00.008445,+00.000713
-131.503,-032.184,+009.361,+0.302,+0.665,+2.521,-05.0360,-01.3270,-07.8990,+00.003041,-00.008306,+00.001660
-131.502,-032.194,+009.363,+0.302,+0.650,+2.542,-05.0640,-01.2910,-07.9060,+00.002232,-00.009162,+00.002921
-131.498,-032.203,+009.363,+0.307,+0.660,+2.510,-05.0600,-01.3070,-07.9100,+00.002144,-00.003723,+00.003442
-131.496,-032.211,+009.366,+0.288,+0.675,+2.509,-05.0460,-01.3080,-07.9310,+00.001262,-00.008242,+00.003994
-131.491,-032.220,+009.365,+0.298,+0.675,+2.547,-05.0400,-01.3070,-07.9290,+00.002433,-00.005833,+00.004104
-131.489,-032.227,+009.364,+0.298,+0.660,+2.537,-05.0640,-01.2760,-07.9090,+00.001642,-00.004183,+00.001988
-131.489,-032.231,+009.365,+0.293,+0.660,+2.520,-05.0480,-01.3170,-07.9190,+00.001066,-00.002741,+00.001248
-131.488,-032.236,+009.365,+0.293,+0.650,+2.526,-05.0540,-01.3030,-07.9060,+00.000205,-00.003967,+00.000471
-131.489,-032.240,+009.366,+0.302,+0.665,+2.537,-05.0450,-01.3060,-07.9130,+00.000404,-00.002900,+00.002243
-131.488,-032.245,+009.363,+0.293,+0.660,+2.526,-05.0540,-01.3020,-07.8780,-00.001568,-00.002461,-00.000982
-131.487,-032.247,+009.362,+0.298,+0.650,+2.526,-05.0670,-01.3170,-07.8780,-00.001751,-00.001214,+00.002268
-131.485,-032.248,+009.358,+0.307,+0.680,+2.505,-05.0590,-01.3050,-07.9130,-00.001893,-00.000982,+00.001426
-131.483,-032.248,+009.356,+0.307,+0.665,+2.516,-05.0460,-01.3410,-07.9220,-00.000731,-00.000594,+00.002357
-131.479,-032.249,+009.353,+0.288,+0.660,+2.542,-05.0660,-01.3100,-07.9130,-00.000909,-00.001932,+00.002472
-131.476,-032.251,+009.352,+0.302,+0.670,+2.521,-05.0780,-01.3180,-07.9100,-00.000199,-00.000368,+00.001685
-131.474,-032.252,+009.349,+0.302,+0.675,+2.531,-05.0740,-01.2860,-07.8790,-00.001518,+00.002306,+00.000623
-131.472,-032.251,+009.345,+0.288,+0.660,+2.542,-05.0780,-01.2870,-07.9200,-00.000704,+00.001438,+00.001645
-131.472,-032.251,+009.345,+0.288,+0.670,+2.525,-05.0330,-01.3140,-07.9070,-00.000239,-00.000274,-00.000340
-131.470,-032.250,+009.343,+0.307,+0.660,+2.510,-05.0350,-01.2950,-07.8610,-00.001187,+00.000711,+00.001766
-131.468,-032.251,+009.341,+0.298,+0.655,+2.542,-05.0650,-01.2830,-07.8980,-00.001042,-00.000475,+00.000096
-131.468,-032.252,+009.339,+0.302,+0.650,+2.510,-05.0660,-01.2760,-07.9130,-00.001334,-00.000787,-00.000563
-131.465,-032.252,+009.335,+0.298,+0.690,+2.510,-05.0560,-01.2870,-07.9370,-00.001453,-00.000466,+00.000513
-131.461,-032.252,+009.332,+0.302,+0.675,+2.542,-05.0630,-01.3060,-07.9460,-00.002451,+00.001915,+00.001644
-131.459,-032.251,+009.330,+0.302,+0.700,+2.537,-05.0740,-01.3240,-07.9270,-00.002377,+00.004513,+00.001325
-131.456,-032.247,+009.323,+0.298,+0.665,+2.526,-05.0560,-01.3140,-07.8840,-00.003993,+00.003179,+00.001102
-131.451,-032.244,+009.317,+0.298,+0.690,+2.537,-05.0510,-01.3180,-07.9170,-00.004343,+00.001909,+00.002318
-131.447,-032.243,+009.311,+0.302,+0.670,+2.515,-05.0680,-01.2940,-07.9010,-00.002012,+00.001596,+00.002741
-131.443,-032.241,+009.305,+0.293,+0.650,+2.493,-05.0750,-01.2780,-07.9440,-00.001605,+00.000706,+00.002800
-131.442,-032.243,+009.304,+0.288,+0.650,+2.526,-05.0630,-01.2960,-07.8820,-00.001326,+00.000687,+00.000359
-131.440,-032.242,+009.301,+0.307,+0.670,+2.526,-05.0520,-01.2900,-07.9050,-00.001426,-00.000140,+00.002124
-131.437,-032.242,+009.297,+0.298,+0.670,+2.537,-05.0870,-01.3010,-07.9170,-00.001916,+00.001180,+00.001290
-131.436,-032.240,+009.294,+0.293,+0.650,+2.537,-05.0460,-01.3080,-07.9200,-00.001890,+00.001442,+00.001009
-131.432,-032.237,+009.289,+0.298,+0.690,+2.520,-05.0910,-01.2850,-07.9160,-00.001528,+00.001357,+00.002741
-131.430,-032.237,+009.286,+0.302,+0.660,+2.521,-05.0800,-01.2840,-07.8930,-00.000956,+00.001072,+00.000761
-131.427,-032.235,+009.283,+0.284,+0.655,+2.536,-05.0560,-01.3110,-07.9030,-00.000617,+00.003689,+00.002286
-131.425,-032.234,+009.280,+0.298,+0.655,+2.526,-05.0650,-01.2830,-07.8790,-00.001560,+00.001765,+00.001856
-131.423,-032.233,+009.276,+0.288,+0.650,+2.509,-05.0510,-01.2810,-07.8680,-00.000515,+00.000042,+00.002616
-131.421,-032.233,+009.273,+0.302,+0.660,+2.532,-05.0460,-01.2910,-07.9100,-00.000675,+00.000214,+00.002022
-131.419,-032.235,+009.271,+0.302,+0.660,+2.510,-05.0620,-01.2910,-07.9290,-00.000323,-00.001484,+00.002552
-131.417,-032.237,+009.268,+0.302,+0.655,+2.521,-05.0800,-01.2760,-07.9290,-00.000844,-00.000583,+00.001139
-131.414,-032.237,+009.262,+0.288,+0.655,+2.520,-05.0620,-01.3040,-07.9030,-00.001938,+00.000680,+00.001797
-131.411,-032.236,+009.259,+0.298,+0.665,+2.494,-05.0570,-01.2880,-07.9390,-00.001310,+00.001627,+00.001300
-131.408,-032.237,+009.257,+0.284,+0.680,+2.509,-05.0630,-01.2880,-07.8990,+00.000565,-00.000442,+00.000868
-131.404,-032.237,+009.255,+0.302,+0.655,+2.548,-05.0680,-01.2990,-07.9140,-00.001502,+00.001031,+00.002226
-131.403,-032.239,+009.256,+0.298,+0.665,+2.526,-05.0730,-01.2830,-07.8640,+00.000464,+00.003227,+00.000986
-131.401,-032.237,+009.256,+0.293,+0.645,+2.510,-05.0660,-01.2840,-07.9230,+00.000551,-00.000625,+00.001610
-131.399,-032.236,+009.254,+0.302,+0.631,+2.548,-05.0440,-01.2860,-07.9170,+00.001274,-00.000451,+00.002167
-131.397,-032.237,+009.253,+0.312,+0.695,+2.505,-05.0730,-01.2910,-07.9150,+00.000895,-00.000230,+00.001475
-131.396,-032.237,+009.253,+0.288,+0.655,+2.520,-05.0580,-01.2930,-07.9090,+00.000746,-00.001129,+00.000681
-131.396,-032.238,+009.254,+0.298,+0.645,+2.537,-05.0590,-01.2740,-07.8890,+00.001793,-00.000957,-00.000990
-131.395,-032.239,+009.254,+0.298,+0.655,+2.515,-05.0410,-01.2620,-07.9130,+00.002868,-00.001680,+00.001091
-131.394,-032.240,+009.256,+0.302,+0.650,+2.510,-05.0650,-01.2900,-07.9230,+00.002256,-00.002858,+00.001050
-131.394,-032.243,+009.257,+0.298,+0.675,+2.531,-05.0650,-01.3060,-07.9170,+00.001076,-00.001645,+00.000191
-131.392,-032.245,+009.257,+0.307,+0.660,+2.516,-05.0600,-01.2680,-07.8800,+00.002124,-00.000659,-00.000292
-131.392,-032.247,+009.257,+0.298,+0.665,+2.504,-05.0510,-01.2690,-07.9210,+00.001234,-00.001792,-00.000185
-131.394,-032.249,+009.260,+0.307,+0.640,+2.521,-05.0560,-01.2970,-07.9280,+00.001290,-00.001013,-00.000489
-131.395,-032.252,+009.262,+0.302,+0.670,+2.526,-05.0640,-01.3080,-07.9120,+00.000179,-00.001477,-00.000120
-131.395,-032.252,+009.263,+0.298,+0.645,+2.515,-05.0460,-01.3090,-07.9100,+00.000228,+00.000718,-00.000444
-131.393,-032.253,+009.263,+0.298,+0.685,+2.537,-05.0470,-01.2920,-07.9170,-00.000336,-00.000995,+00.002286
-131.391,-032.256,+009.263,+0.298,+0.680,+2.520,-05.0720,-01.2870,-07.9270,+00.000929,-00.004013,+00.002515
-131.390,-032.258,+009.263,+0.293,+0.660,+2.515,-05.0340,-01.2880,-07.9160,+00.000117,-00.003078,+00.001386
-131.390,-032.262,+009.264,+0.302,+0.640,+2.532,-05.0840,-01.2830,-07.8880,+00.000644,-00.001382,-00.000567
-131.389,-032.261,+009.263,+0.302,+0.650,+2.499,-05.0380,-01.2790,-07.9360,+00.001239,-00.002208,+00.001725
-131.388,-032.263,+009.263,+0.312,+0.645,+2.511,-05.0530,-01.2990,-07.9230,+00.001040,-00.003278,+00.001698
-131.386,-032.268,+009.263,+0.293,+0.680,+2.531,-05.0760,-01.3220,-07.8860,-00.000105,-00.003294,+00.003112
-131.384,-032.271,+009.261,+0.312,+0.680,+2.516,-05.0650,-01.2730,-07.9080,+00.000410,-00.002316,+00.001976
-131.384,-032.273,+009.261,+0.307,+0.645,+2.527,-05.0600,-01.2940,-07.9200,-00.000020,-00.002156,-00.000487
-131.383,-032.274,+009.261,+0.307,+0.665,+2.510,-05.0630,-01.2820,-07.9150,+00.001469,-00.000306,+00.000247
-131.384,-032.274,+009.262,+0.302,+0.670,+2.499,-05.0580,-01.3040,-07.9110,+00.000113,+00.001328,+00.000508
-131.383,-032.272,+009.261,+0.298,+0.655,+2.515,-05.0440,-01.2610,-07.8970,+00.000326,+00.001598,-00.000307
-131.383,-032.271,+009.259,+0.298,+0.640,+2.532,-05.0440,-01.2830,-07.9000,-00.001369,-00.000206,-00.001337
-131.383,-032.269,+009.258,+0.307,+0.670,+2.521,-05.0950,-01.2980,-07.9020,-00.000649,+00.002043,+00.001887
-131.383,-032.266,+009.255,+0.298,+0.635,+2.515,-05.0530,-01.2780,-07.8820,-00.001426,+00.004623,+00.000239
-131.381,-032.262,+009.251,+0.302,+0.635,+2.526,-05.0640,-01.2760,-07.8930,-00.001673,+00.003488,+00.000226
-131.380,-032.258,+009.247,+0.302,+0.695,+2.537,-05.0590,-01.2660,-07.8980,-00.002280,+00.005046,-00.000661
-131.380,-032.254,+009.245,+0.288,+0.655,+2.493,-05.0460,-01.2930,-07.8990,-00.001855,+00.005854,-00.001758
-131.378,-032.248,+009.240,+0.293,+0.645,+2.542,-05.0500,-01.2890,-07.8870,-00.002036,+00.004175,-00.000250
-131.377,-032.243,+009.237,+0.307,+0.655,+2.521,-05.0540,-01.2810,-07.9100,-00.000832,+00.004492,-00.000942
-131.376,-032.239,+009.236,+0.298,+0.650,+2.505,-05.0600,-01.2720,-07.9200,-00.000234,+00.003186,+00.001206
-131.375,-032.236,+009.233,+0.298,+0.650,+2.542,-05.0630,-01.2690,-07.9170,-00.000156,+00.002894,-00.001008
-131.377,-032.233,+009.234,+0.302,+0.680,+2.521,-05.0460,-01.2870,-07.9090,+00.000175,+00.003134,-00.001800
-131.380,-032.235,+009.235,+0.302,+0.690,+2.526,-05.0390,-01.2960,-07.9000,+00.001577,-00.016079,-00.002485
-131.380,-032.230,+009.234,+0.298,+0.665,+2.515,-05.0560,-01.2880,-07.9200,-00.001425,+00.002764,-00.002180
-131.380,-032.226,+009.234,+0.298,+0.695,+2.531,-05.0470,-01.2830,-07.9260,-00.001680,+00.001799,-00.000021
-131.379,-032.224,+009.232,+0.298,+0.695,+2.531,-05.0290,-01.2810,-07.9170,-00.001150,+00.004461,-00.001285
-131.380,-032.219,+009.233,+0.288,+0.670,+2.542,-05.0520,-01.2780,-07.9120,-00.000270,+00.003573,-00.001807
-131.381,-032.217,+009.234,+0.298,+0.685,+2.521,-05.0700,-01.3000,-07.9140,-00.000360,+00.001181,-00.000137
-131.381,-032.216,+009.235,+0.298,+0.665,+2.515,-05.0370,-01.3030,-07.9260,+00.000776,-00.003205,+00.000859
-131.382,-032.217,+009.235,+0.307,+0.636,+2.554,-05.0800,-01.2700,-07.9400,+00.001159,+00.001275,-00.001643
-131.383,-032.215,+009.236,+0.298,+0.690,+2.515,-05.0400,-01.2880,-07.9250,+00.000785,+00.001474,+00.000534
-131.383,-032.215,+009.237,+0.288,+0.655,+2.504,-05.0280,-01.2720,-07.8800,+00.001700,-00.000048,-00.001376
-131.383,-032.218,+009.240,+0.284,+0.660,+2.536,-05.0460,-01.2620,-07.9300,+00.002699,-00.001672,-00.000809
-131.385,-032.219,+009.244,+0.298,+0.695,+2.504,-05.0600,-01.2750,-07.8910,+00.003067,+00.000833,-00.001804
-131.386,-032.219,+009.248,+0.307,+0.650,+2.521,-05.0550,-01.2880,-07.8940,+00.002173,+00.000709,-00.001586
-131.389,-032.222,+009.253,+0.298,+0.645,+2.542,-05.0460,-01.3130,-07.9140,+00.003618,-00.002954,-00.000086
-131.392,-032.226,+009.259,+0.298,+0.665,+2.531,-05.0700,-01.2960,-07.8930,+00.003330,-00.002724,-00.000809
-131.392,-032.229,+009.264,+0.307,+0.660,+2.527,-05.0530,-01.2930,-07.9000,+00.003077,-00.002653,+00.000629
-131.394,-032.231,+009.268,+0.293,+0.660,+2.542,-05.0380,-01.3010,-07.9160,+00.002524,-00.002583,-00.000668
-131.395,-032.236,+009.273,+0.307,+0.650,+2.527,-05.0670,-01.2950,-07.8910,+00.003324,-00.003806,-00.000236
-131.397,-032.238,+009.276,+0.307,+0.675,+2.526,-05.0550,-01.2790,-07.9190,+00.002405,+00.000005,-00.000520
-131.398,-032.241,+009.280,+0.293,+0.635,+2.499,-05.0570,-01.3120,-07.9240,+00.002145,-00.001953,-00.000380
-131.398,-032.245,+009.281,+0.298,+0.665,+2.494,-05.0870,-01.2790,-07.9000,+00.001651,-00.003727,+00.000174
-131.399,-032.249,+009.283,+0.302,+0.660,+2.532,-05.0380,-01.3030,-07.9340,+00.000820,-00.004520,+00.000773
-131.399,-032.254,+009.284,+0.293,+0.645,+2.542,-05.0650,-01.2770,-07.9100,+00.000771,-00.001910,+00.001670
-131.398,-032.256,+009.285,+0.307,+0.665,+2.537,-05.0370,-01.3110,-07.9380,+00.001038,-00.000814,+00.002276
-131.396,-032.257,+009.284,+0.298,+0.650,+2.515,-05.0360,-01.2760,-07.9170,-00.000139,-00.001899,+00.000858
-131.395,-032.261,+009.284,+0.298,+0.690,+2.547,-05.0750,-01.2880,-07.9100,+00.001686,-00.003651,+00.001668
-131.393,-032.265,+009.284,+0.298,+0.660,+2.510,-05.0690,-01.3140,-07.8690,+00.001095,-00.002390,+00.002618
-131.392,-032.268,+009.285,+0.288,+0.675,+2.515,-05.0560,-01.3000,-07.9110,+00.001005,-00.002322,+00.001518
-131.390,-032.272,+009.286,+0.288,+0.665,+2.509,-05.0490,-01.2950,-07.8880,-00.000162,-00.004080,+00.000365
-131.388,-032.278,+009.286,+0.298,+0.670,+2.510,-05.0820,-01.2700,-07.8810,+00.001505,-00.003057,+00.001539
-131.389,-032.281,+009.286,+0.298,+0.640,+2.505,-05.0660,-01.2620,-07.8890,+00.000809,-00.000523,-00.000990
-131.388,-032.283,+009.287,+0.298,+0.655,+2.548,-05.0750,-01.2760,-07.8900,+00.001011,-00.000794,+00.002219
-131.386,-032.284,+009.286,+0.302,+0.650,+2.521,-05.0690,-01.2720,-07.9280,+00.001749,-00.001248,+00.002041
-131.388,-032.286,+009.290,+0.293,+0.645,+2.521,-05.0500,-01.3040,-07.9390,+00.002330,-00.001379,+00.000076
-131.387,-032.287,+009.291,+0.293,+0.641,+2.553,-05.0580,-01.2710,-07.8930,+00.002172,-00.000949,+00.001718
-131.388,-032.287,+009.294,+0.302,+0.660,+2.505,-05.0790,-01.3030,-07.8730,+00.001661,-00.001355,-00.000546
-131.388,-032.290,+009.294,+0.298,+0.655,+2.488,-05.0620,-01.2950,-07.9200,+00.002062,-00.002976,-00.000466
-131.387,-032.294,+009.296,+0.302,+0.680,+2.532,-05.0640,-01.2620,-07.8870,+00.002663,-00.001557,-00.001023
-131.387,-032.297,+009.298,+0.293,+0.665,+2.515,-05.0710,-01.3120,-07.9070,+00.001935,-00.002121,-00.001088
-131.388,-032.297,+009.301,+0.302,+0.660,+2.532,-05.0590,-01.2890,-07.9330,+00.002694,-00.000456,-00.000133
-131.389,-032.297,+009.302,+0.307,+0.645,+2.527,-05.0730,-01.2880,-07.9230,+00.000694,-00.001839,+00.000665
-131.389,-032.300,+009.304,+0.307,+0.680,+2.516,-05.0720,-01.3060,-07.9060,+00.002769,-00.003980,-00.000655
-131.391,-032.304,+009.306,+0.312,+0.655,+2.516,-05.0850,-01.2610,-07.9290,+00.003161,-00.002883,-00.000901
-131.391,-032.307,+009.308,+0.293,+0.645,+2.521,-05.0760,-01.3000,-07.9680,+00.001144,-00.001410,+00.001158
-131.391,-032.309,+009.309,+0.302,+0.665,+2.516,-05.0630,-01.3120,-07.8700,-00.000031,-00.001161,+00.000488
-131.392,-032.312,+009.310,+0.293,+0.650,+2.510,-05.0530,-01.2890,-07.9190,+00.001253,-00.003785,+00.000061
-131.391,-032.316,+009.311,+0.298,+0.665,+2.531,-05.0670,-01.3070,-07.9000,+00.001333,-00.005644,+00.000895
-131.393,-032.321,+009.314,+0.307,+0.680,+2.537,-05.0760,-01.3020,-07.8960,+00.002987,-00.002952,-00.002671
-131.395,-032.331,+009.317,+0.298,+0.640,+2.516,-05.0850,-01.2870,-07.9220,+00.001529,-00.003553,+00.000703
-131.397,-032.338,+009.318,+0.307,+0.640,+2.516,-05.0710,-01.3100,-07.8690,-00.000685,-00.008143,+00.001635
-131.397,-032.349,+009.318,+0.307,+0.675,+2.499,-05.0670,-01.3080,-07.9090,-00.000269,-00.009705,+00.002156
-131.399,-032.370,+009.321,+0.312,+0.675,+2.516,-05.0410,-01.3160,-07.8780,+00.002439,-00.019434,+00.003158
-131.397,-032.393,+009.321,+0.302,+0.645,+2.537,-05.0980,-01.2710,-07.8980,+00.001874,-00.022334,+00.004422
-131.400,-032.422,+009.327,+0.302,+0.710,+2.531,-05.1020,-01.2820,-07.8900,+00.007132,-00.027489,+00.000066
-131.406,-032.451,+009.336,+0.312,+0.665,+2.511,-05.1050,-01.2930,-07.9380,+00.005485,-00.027915,-00.001280
-131.411,-032.484,+009.348,+0.298,+0.645,+2.537,-05.1040,-01.3300,-07.8980,+00.008382,-00.028141,+00.000522
-131.417,-032.516,+009.358,+0.302,+0.660,+2.521,-05.1160,-01.3110,-07.8530,+00.006449,-00.029529,-00.000059
-131.424,-032.550,+009.371,+0.312,+0.675,+2.521,-05.1130,-01.2900,-07.9140,+00.008286,-00.032199,-00.000638
-131.435,-032.585,+009.385,+0.312,+0.655,+2.543,-05.1200,-01.2940,-07.9120,+00.010724,-00.031363,-00.004728
-131.448,-032.624,+009.405,+0.321,+0.670,+2.522,-05.1170,-01.3240,-07.8360,+00.011615,-00.037231,-00.003705
-131.462,-032.671,+009.426,+0.316,+0.655,+2.516,-05.0970,-01.3160,-07.8620,+00.013411,-00.044648,-00.002914
-131.475,-032.722,+009.443,+0.316,+0.660,+2.532,-05.1110,-01.2930,-07.8770,+00.006851,-00.042914,-00.002345
-131.486,-032.771,+009.456,+0.307,+0.670,+2.521,-05.1450,-01.3290,-07.8930,+00.003937,-00.042751,-00.001451
-131.496,-032.821,+009.466,+0.307,+0.665,+2.500,-05.1320,-01.3440,-07.8440,+00.001299,-00.043411,+00.003317
-131.501,-032.877,+009.467,+0.316,+0.650,+2.522,-05.1650,-01.2910,-07.8350,-00.000849,-00.052052,+00.004865
-131.508,-032.945,+009.471,+0.326,+0.699,+2.527,-05.1540,-01.3190,-07.8530,-00.000268,-00.065810,+00.003730
-131.516,-033.024,+009.473,+0.330,+0.660,+2.511,-05.1830,-01.2770,-07.8680,-00.000037,-00.070002,+00.004899
-131.527,-033.102,+009.480,+0.316,+0.660,+2.549,-05.1880,-01.3150,-07.8480,+00.002441,-00.065839,+00.001631
-131.536,-033.164,+009.486,+0.326,+0.665,+2.522,-05.2120,-01.3040,-07.8400,+00.001892,-00.044896,+00.003487
-131.542,-033.192,+009.492,+0.321,+0.665,+2.489,-05.1840,-01.3020,-07.8250,+00.003837,-00.008668,-00.001770
-131.547,-033.198,+009.499,+0.344,+0.650,+2.507,-05.1790,-01.3130,-07.8240,+00.003870,+00.005792,-00.003921
-131.551,-033.196,+009.504,+0.339,+0.675,+2.517,-05.2120,-01.3240,-07.8500,+00.002626,+00.002515,-00.002547
-131.552,-033.195,+009.508,+0.325,+0.660,+2.495,-05.2130,-01.3070,-07.8290,+00.002008,+00.008725,-00.001318
-131.555,-033.192,+009.511,+0.330,+0.670,+2.528,-05.2010,-01.3230,-07.8260,+00.003182,+00.008713,-00.002134
-131.557,-033.190,+009.517,+0.326,+0.675,+2.517,-05.2130,-01.2910,-07.8190,+00.003129,+00.005406,-00.002201
-131.559,-033.179,+009.518,+0.335,+0.660,+2.495,-05.1760,-01.2990,-07.7860,+00.002129,+00.011806,-00.002213
-131.561,-033.169,+009.523,+0.330,+0.660,+2.501,-05.1840,-01.3230,-07.8140,+00.002005,+00.008352,-00.001588
-131.564,-033.163,+009.528,+0.330,+0.660,+2.528,-05.1890,-01.3120,-07.8650,+00.003114,+00.005287,-00.002323
-131.568,-033.153,+009.534,+0.321,+0.670,+2.506,-05.2070,-01.2950,-07.8210,+00.003017,+00.016993,-00.005023
-131.567,-033.132,+009.534,+0.330,+0.670,+2.549,-05.1980,-01.3030,-07.8490,+00.001897,+00.020506,-00.003497
-131.563,-033.084,+009.533,+0.321,+0.655,+2.511,-05.1780,-01.3140,-07.8510,+00.000382,+00.046277,-00.003512
-131.562,-033.043,+009.532,+0.326,+0.660,+2.511,-05.2300,-01.3180,-07.8790,+00.001298,+00.051761,-00.005947
-131.557,-033.001,+009.526,+0.330,+0.655,+2.522,-05.2380,-01.2810,-07.8070,+00.000760,+00.061228,-00.005088
-131.560,-032.959,+009.524,+0.316,+0.665,+2.516,-05.1780,-01.2410,-07.8130,-00.004067,+00.024447,-00.008940
-131.572,-032.933,+009.529,+0.321,+0.660,+2.495,-05.1790,-01.3040,-07.8620,-00.000983,+00.022424,-00.013534
-131.581,-032.897,+009.528,+0.307,+0.690,+2.526,-05.1830,-01.3380,-07.8410,-00.008027,+00.029233,-00.010509
-131.590,-032.855,+009.523,+0.326,+0.699,+2.516,-05.1820,-01.3070,-07.8590,-00.013312,+00.040404,-00.013122
-131.591,-032.809,+009.510,+0.307,+0.665,+2.527,-05.0590,-01.3350,-07.8040,-00.012881,+00.034089,-00.000511
-131.584,-032.769,+009.491,+0.325,+0.645,+2.522,-05.1260,-01.3430,-07.8620,-00.011060,+00.030432,-00.000726
-131.581,-032.741,+009.481,+0.316,+0.665,+2.522,-05.1290,-01.2960,-07.8490,-00.004208,+00.019087,-00.003364
-131.587,-032.717,+009.479,+0.312,+0.655,+2.489,-05.1660,-01.2670,-07.8760,-00.002284,+00.021817,-00.009412
-131.600,-032.680,+009.484,+0.312,+0.650,+2.538,-05.1860,-01.2920,-07.9120,-00.002063,+00.037852,-00.016411
-131.624,-032.626,+009.495,+0.321,+0.695,+2.522,-05.2130,-01.2370,-07.9020,-00.001247,+00.049509,-00.028559
-131.665,-032.546,+009.522,+0.312,+0.655,+2.516,-05.1760,-01.2630,-07.9140,+00.008182,+00.074223,-00.045718
-131.713,-032.447,+009.560,+0.307,+0.650,+2.527,-05.1080,-01.3290,-07.8900,+00.011989,+00.084342,-00.048298
-131.753,-032.350,+009.597,+0.302,+0.680,+2.499,-05.0500,-01.4080,-07.8950,+00.010258,+00.076643,-00.037263
-131.776,-032.261,+009.614,+0.302,+0.660,+2.499,-04.9810,-01.4030,-07.8770,-00.000515,+00.073892,-00.025690
-131.784,-032.176,+009.611,+0.288,+0.645,+2.531,-04.9970,-01.3790,-07.8970,-00.009622,+00.071805,-00.012962
-131.782,-032.091,+009.594,+0.288,+0.685,+2.515,-04.9960,-01.3650,-07.9060,-00.016151,+00.074034,-00.006613
-131.773,-032.008,+009.570,+0.284,+0.660,+2.531,-04.9220,-01.3780,-07.8540,-00.016467,+00.064688,-00.005010
-131.761,-031.957,+009.543,+0.288,+0.641,+2.542,-04.9700,-01.3410,-07.9040,-00.016656,+00.035095,+00.003835
-131.755,-031.927,+009.531,+0.284,+0.680,+2.520,-05.0330,-01.2660,-07.9280,+00.000982,+00.020742,-00.002995
-131.764,-031.900,+009.547,+0.288,+0.660,+2.520,-05.0500,-01.2520,-07.9630,+00.019619,+00.021015,-00.017078
-131.788,-031.867,+009.588,+0.279,+0.646,+2.542,-05.0370,-01.3110,-07.9510,+00.027510,+00.026435,-00.024599
-131.818,-031.835,+009.634,+0.284,+0.665,+2.520,-04.9860,-01.3840,-07.9540,+00.024871,+00.022474,-00.024651
-131.845,-031.811,+009.672,+0.288,+0.670,+2.515,-04.9590,-01.3850,-07.9120,+00.018472,+00.012910,-00.021054
-131.865,-031.808,+009.709,+0.275,+0.670,+2.536,-04.7960,-01.5070,-07.9210,+00.019905,-00.012020,-00.007235
-131.871,-031.843,+009.730,+0.288,+0.670,+2.493,-04.9310,-01.3600,-07.9240,+00.016322,-00.036861,+00.004876
-131.878,-031.889,+009.760,+0.284,+0.665,+2.536,-04.9970,-01.2470,-07.8950,+00.034239,-00.045853,-00.004005
-131.907,-031.937,+009.834,+0.284,+0.670,+2.542,-04.8950,-01.3150,-07.9410,+00.062475,-00.050694,-00.018523
-131.950,-032.006,+009.935,+0.284,+0.675,+2.493,-04.9610,-01.3240,-07.9350,+00.072246,-00.073418,-00.022158
-132.007,-032.108,+010.062,+0.302,+0.714,+2.526,-04.7120,-01.4090,-07.7770,+00.095582,-00.111800,-00.023938
-132.064,-032.258,+010.211,+0.298,+0.700,+2.537,-05.0470,-01.2910,-07.8870,+00.108014,-00.145098,-00.020707
-132.136,-032.403,+010.383,+0.307,+0.695,+2.526,-05.2400,-01.4740,-07.7960,+00.119107,-00.119746,-00.035045
-132.220,-032.520,+010.582,+0.312,+0.685,+2.494,-05.0340,-01.4390,-07.7380,+00.142086,-00.102675,-00.045369
-132.317,-032.625,+010.806,+0.307,+0.685,+2.527,-05.1670,-01.3020,-07.9110,+00.158971,-00.099401,-00.059564
-132.432,-032.702,+011.038,+0.312,+0.699,+2.494,-05.2430,-01.5430,-07.9040,+00.132011,-00.066214,-00.069904
-132.523,-032.723,+011.176,+0.307,+0.695,+2.521,-05.2320,-01.7620,-07.8370,+00.039741,-00.011184,-00.047689
-132.554,-032.729,+011.205,+0.307,+0.705,+2.521,-05.1550,-01.6820,-07.8020,-00.009936,-00.013692,-00.002183
-132.512,-032.735,+011.093,+0.312,+0.709,+2.478,-05.1560,-01.7480,-07.8850,-00.102420,+00.005000,+00.050363
-132.422,-032.739,+010.912,+0.312,+0.690,+2.510,-05.2000,-01.4880,-07.8980,-00.114742,+00.007333,+00.068383
-132.345,-032.748,+010.755,+0.316,+0.690,+2.521,-05.1970,-01.3230,-07.8640,-00.099978,+00.004472,+00.051526
-132.260,-032.757,+010.550,+0.307,+0.690,+2.521,-05.1140,-01.5470,-07.8710,-00.145735,-00.001253,+00.067708
-132.163,-032.790,+010.339,+0.316,+0.714,+2.516,-05.0220,-01.5860,-07.8440,-00.132658,-00.024673,+00.082258
-132.037,-032.845,+010.103,+0.326,+0.695,+2.533,-05.1210,-01.5700,-07.8270,-00.155856,-00.037569,+00.109831
-131.899,-032.939,+009.866,+0.316,+0.680,+2.522,-05.1360,-01.2540,-07.7120,-00.124689,-00.083831,+00.109489
-131.804,-033.073,+009.707,+0.330,+0.665,+2.495,-05.1860,-01.1980,-07.8140,-00.081085,-00.096366,+00.078538
-131.741,-033.196,+009.594,+0.326,+0.645,+2.544,-05.2600,-01.2440,-07.7970,-00.060973,-00.092841,+00.054672
-131.707,-033.290,+009.535,+0.326,+0.675,+2.500,-05.2150,-01.1890,-07.8450,-00.012736,-00.069720,+00.027908
-131.702,-033.375,+009.559,+0.326,+0.670,+2.522,-05.1540,-01.2610,-07.7730,+00.042422,-00.076614,+00.011341
-131.705,-033.470,+009.621,+0.312,+0.665,+2.511,-05.2130,-01.3420,-07.7990,+00.049175,-00.077875,+00.017144
-131.686,-033.541,+009.646,+0.339,+0.689,+2.528,-05.2730,-01.2890,-07.8310,+00.015251,-00.046439,+00.028006
-131.642,-033.586,+009.610,+0.344,+0.655,+2.528,-05.1660,-01.4010,-07.7870,-00.026594,-00.029525,+00.048278
-131.561,-033.651,+009.517,+0.339,+0.655,+2.534,-05.2170,-01.3250,-07.8210,-00.054334,-00.058339,+00.079780
-131.453,-033.753,+009.392,+0.339,+0.689,+2.523,-05.2950,-01.2520,-07.7870,-00.055241,-00.090543,+00.098574
-131.332,-033.905,+009.258,+0.358,+0.655,+2.507,-05.1900,-01.2410,-07.7750,-00.056792,-00.143952,+00.116029
-131.199,-034.136,+009.123,+0.358,+0.655,+2.534,-05.2150,-01.3030,-07.7580,-00.054086,-00.207045,+00.134053
-131.062,-034.432,+008.988,+0.376,+0.664,+2.497,-05.3530,-01.2240,-07.7770,-00.055089,-00.250395,+00.137802
-130.907,-034.771,+008.826,+0.381,+0.635,+2.514,-05.2950,-01.2260,-07.6980,-00.065270,-00.288427,+00.164959
-130.694,-035.176,+008.604,+0.395,+0.634,+2.520,-05.5480,-01.3810,-07.6200,-00.090148,-00.358755,+00.231680
-130.425,-035.680,+008.369,+0.418,+0.644,+2.499,-05.3800,-01.2940,-07.6480,-00.058193,-00.460365,+00.279463
-130.057,-036.359,+008.140,+0.427,+0.649,+2.516,-05.3730,-01.3610,-07.7240,+00.006191,-00.639061,+00.378895
-129.680,-037.425,+007.932,+0.469,+0.649,+2.518,-05.3470,-00.8810,-07.6840,+00.040550,-01.026327,+00.394089
-129.375,-038.961,+007.813,+0.515,+0.628,+2.488,-05.5140,-00.6910,-07.5870,+00.065748,-01.519075,+00.381643
-129.257,-041.153,+007.803,+0.590,+0.637,+2.464,-05.8990,-00.5990,-07.4580,+00.017739,-02.109691,+00.296468
-129.249,-043.991,+007.705,+0.682,+0.612,+2.463,-06.0900,-00.6950,-07.1110,-00.126289,-02.706910,+00.403971
-129.053,-047.559,+007.406,+0.793,+0.625,+2.387,-06.4050,-00.7790,-06.8090,-00.141594,-03.303670,+00.601892
-128.735,-051.874,+007.158,+0.942,+0.598,+2.350,-07.1540,-00.6940,-06.6430,+00.138315,-03.925176,+00.669390
-128.441,-056.582,+007.390,+1.043,+0.597,+2.295,-07.8960,-00.4430,-05.9680,+00.535098,-04.060460,+00.649732
-128.034,-061.292,+007.598,+1.192,+0.625,+2.183,-08.5540,-00.6880,-05.8220,+00.471957,-04.072790,+00.788145
-127.379,-065.918,+007.473,+1.321,+0.603,+2.076,-09.2250,-00.9700,-05.2580,+00.350272,-04.358923,+00.955438
-126.104,-070.993,+006.592,+1.437,+0.587,+1.989,-11.2950,-00.2600,-05.1670,+00.322524,-04.256862,+00.912100
-123.423,-075.714,+004.041,+1.553,+0.550,+1.854,-11.5010,-01.4420,-04.3620,-00.104221,-03.946314,+01.143726
-116.275,-080.401,-003.178,+1.654,+0.489,+1.713,-12.1130,-01.7570,-04.5230,-00.249219,-04.163022,+01.444248
-096.258,-084.338,-023.429,+1.719,+0.424,+1.609,-12.7620,-01.7240,-04.0650,-00.324141,-03.623117,+01.464426
-046.998,-085.781,-072.728,+1.802,+0.408,+1.467,-11.9450,-01.6670,-06.4370,-00.088785,-03.323625,+01.566193
-011.141,-084.135,-107.903,+1.839,+0.337,+1.356,-13.3560,-00.0740,-06.5140,+00.931193,-02.391323,+01.120231
-000.520,-081.649,-116.776,+1.862,+0.302,+1.276,+01.9620,-10.1500,-04.2200,+01.496984,-01.385352,+02.316260
-024.706,-082.118,-093.283,+1.839,+0.278,+1.324,-06.2070,-09.1450,-18.5920,-01.129750,+04.380800,-00.516517
-055.162,-080.904,-064.871,+1.774,+0.259,+1.440,-01.3640,-02.0940,-10.1340,-01.579834,+03.833404,+00.741514
-071.526,-077.848,-049.770,+1.732,+0.211,+1.546,-04.3120,-01.1690,-09.0070,-00.343719,+03.559692,+00.822156
-080.891,-074.637,-040.473,+1.695,+0.177,+1.594,-02.6140,-04.1850,-07.3330,+00.330862,+03.263852,+00.506270
-087.458,-071.535,-033.896,+1.644,+0.153,+1.705,-02.6060,-04.8560,-06.3490,+00.200381,+03.066204,+00.184729
-093.397,-068.593,-027.943,+1.608,+0.204,+1.800,-03.1050,-03.6370,-07.0130,+00.487374,+03.153552,-00.468450
-100.020,-065.552,-020.936,+1.552,+0.214,+1.867,-05.0160,-04.1620,-08.3240,+00.909036,+03.482435,-01.234456
-106.864,-062.129,-013.737,+1.474,+0.280,+2.004,-05.5230,-03.8190,-07.7500,+00.927274,+03.674099,-01.845216
-113.343,-058.469,-006.928,+1.395,+0.375,+2.129,-06.9360,-02.1450,-07.7680,+01.107154,+03.603070,-02.364432
-119.108,-054.643,-000.667,+1.261,+0.471,+2.230,-07.9510,-00.2260,-08.4850,+01.374726,+03.440000,-02.610458
-123.781,-050.736,+004.873,+1.094,+0.577,+2.319,-09.3430,+00.8700,-09.4000,+01.691810,+03.277447,-02.539066
-127.050,-046.741,+009.212,+0.956,+0.638,+2.367,-11.3570,+00.2700,-11.2390,+01.545564,+03.243230,-02.112192
-128.864,-042.541,+012.110,+0.817,+0.733,+2.392,-12.5880,+00.4820,-11.4800,+01.374820,+03.482582,-01.613278
-129.776,-038.353,+014.365,+0.659,+0.770,+2.407,-11.7930,-00.4590,-08.3350,+01.494797,+03.305781,-01.329326
-130.445,-034.649,+016.486,+0.543,+0.796,+2.407,-13.6610,-03.0390,-08.7820,+01.508749,+02.835787,-01.363074
-131.270,-030.923,+018.529,+0.432,+0.871,+2.374,-14.0720,-03.3500,-09.6720,+01.303816,+02.977556,-01.651136
-132.139,-027.029,+020.380,+0.344,+0.896,+2.360,-12.7830,-01.5210,-09.0670,+01.237823,+02.987562,-01.822645
-132.989,-023.065,+022.024,+0.265,+0.917,+2.356,-12.7570,-01.8860,-08.5440,+00.985820,+02.991433,-01.890678
-133.694,-019.135,+023.041,+0.177,+0.962,+2.352,-11.4070,-00.8690,-06.0990,+00.491449,+02.875743,-01.796212
-134.308,-015.623,+023.696,+0.076,+1.003,+2.379,-10.9270,+00.2370,-04.4830,+00.432531,+02.442761,-01.609462
-134.829,-012.618,+024.540,-0.022,+1.014,+2.429,-11.3120,+01.1790,-03.9940,+00.775458,+02.098438,-01.384336
-135.158,-010.087,+025.868,-0.110,+1.099,+2.430,-10.6040,+02.3480,-02.7230,+01.286119,+01.728022,-01.066388
-135.289,-008.267,+027.472,-0.198,+1.174,+2.409,-09.9360,+01.8130,-02.1320,+01.368314,+01.149180,-00.659477
-135.222,-007.177,+028.690,-0.248,+1.229,+2.412,-09.3070,-00.2700,-03.4810,+00.807856,+00.741183,-00.218383
-134.785,-006.596,+029.112,-0.286,+1.259,+2.405,-07.8940,+00.2560,-03.5070,+00.266799,+00.562932,+00.245791
-134.135,-006.434,+029.302,-0.309,+1.274,+2.404,-07.3760,-01.6610,-03.3220,+00.226057,+00.307529,+00.492944
-133.627,-006.587,+029.338,-0.313,+1.264,+2.420,-06.5000,-04.4840,-03.0850,-00.040837,-00.051829,+00.367909
-133.742,-007.005,+029.027,-0.299,+1.298,+2.425,-04.7140,-05.5240,-03.8220,-00.411603,-00.564738,-00.091798
-134.613,-007.579,+028.572,-0.285,+1.244,+2.459,-04.8780,-05.0850,-03.6540,-00.520545,-00.946488,-00.614094
-135.956,-009.065,+028.660,-0.248,+1.254,+2.487,-00.0610,-09.4010,-07.7500,-00.131286,-01.834091,-00.374586
-136.730,-011.313,+027.865,-0.169,+1.268,+2.545,-03.3860,-03.1650,-07.7150,-01.082935,-02.023171,+00.631830
-136.900,-013.912,+026.473,-0.067,+1.233,+2.587,+00.3090,-02.3290,-06.9050,-01.326519,-02.254620,+01.058414
-136.890,-017.272,+024.849,+0.035,+1.212,+2.667,-03.3440,-01.3550,-08.4220,-01.448660,-02.804258,+01.395532
-136.661,-020.611,+023.319,+0.169,+1.181,+2.700,-06.5690,-00.3450,-10.6470,-01.156612,-02.404229,+01.340175
-136.333,-023.682,+022.166,+0.289,+1.155,+2.711,-07.7490,-02.4000,-10.2500,-00.712032,-02.307080,+01.145207
-136.171,-026.369,+021.366,+0.368,+1.135,+2.763,-08.8810,-02.8160,-10.9930,-00.543085,-01.979182,+00.854825
-135.967,-028.508,+020.668,+0.475,+1.144,+2.763,-08.0150,-02.7890,-10.1030,-00.575173,-01.519254,+00.811495
-135.728,-030.221,+019.830,+0.549,+1.104,+2.777,-07.4900,-04.3990,-09.1040,-00.778127,-01.244544,+00.686459
-135.347,-031.516,+018.463,+0.586,+1.069,+2.806,-07.3920,-04.6400,-08.9720,-01.254786,-00.840738,+00.640221
-134.827,-032.498,+016.520,+0.646,+1.034,+2.814,-06.0170,-01.8720,-08.3330,-01.546631,-00.657765,+00.634724
-134.194,-033.240,+014.505,+0.665,+0.955,+2.842,-05.6190,-02.2760,-07.8210,-01.463124,-00.447178,+00.615339
-133.555,-033.705,+012.686,+0.688,+0.895,+2.882,-05.8570,+00.0040,-08.6750,-01.061763,-00.195070,+00.500285
-133.087,-033.888,+011.558,+0.697,+0.871,+2.893,-06.5680,+00.4270,-08.6990,-00.577994,-00.002235,+00.305724
-132.690,-033.952,+010.679,+0.697,+0.831,+2.893,-05.9320,-00.7640,-08.2420,-00.544844,+00.017986,+00.296159
-132.271,-033.927,+009.888,+0.692,+0.806,+2.920,-06.2700,-01.6500,-07.8530,-00.439788,+00.120180,+00.286087
-131.831,-033.770,+009.193,+0.697,+0.831,+2.920,-05.4550,-01.5380,-07.6310,-00.375682,+00.215965,+00.298214
-131.372,-033.566,+008.514,+0.683,+0.792,+2.925,-05.3050,-01.4030,-07.4540,-00.337253,+00.215462,+00.289069
-131.008,-033.440,+007.998,+0.674,+0.747,+2.936,-05.2060,-00.6350,-07.8120,-00.235377,+00.102984,+00.218017
-130.787,-033.399,+007.674,+0.674,+0.772,+2.925,-05.3280,-00.4600,-07.8660,-00.162853,+00.036814,+00.123698
-130.667,-033.394,+007.452,+0.678,+0.747,+2.920,-05.3210,-00.6330,-07.8730,-00.123965,+00.010401,+00.062378
-130.587,-033.409,+007.274,+0.683,+0.747,+2.953,-05.1220,-01.2500,-07.7430,-00.111904,-00.016722,+00.065365
-130.482,-033.455,+007.088,+0.683,+0.732,+2.936,-05.2180,-01.0850,-07.8120,-00.119494,-00.033156,+00.089914
-130.359,-033.494,+006.889,+0.683,+0.723,+2.920,-05.2880,-00.8840,-07.8930,-00.105797,-00.021202,+00.087995
-130.269,-033.546,+006.733,+0.678,+0.743,+2.958,-05.1320,-00.6830,-07.8040,-00.084173,-00.051536,+00.059011
-130.218,-033.644,+006.619,+0.692,+0.752,+2.931,-05.2710,-00.8790,-07.9260,-00.072392,-00.088229,+00.045388
-130.162,-033.748,+006.517,+0.697,+0.737,+2.926,-05.3490,-00.9080,-07.8120,-00.059188,-00.077013,+00.056129
-130.088,-033.850,+006.420,+0.692,+0.698,+2.959,-05.2050,-00.8730,-07.7070,-00.039637,-00.091242,+00.069926
-130.002,-033.959,+006.334,+0.702,+0.737,+2.937,-05.3990,-00.9430,-07.8810,-00.038602,-00.068653,+00.078706
-129.904,-034.025,+006.235,+0.697,+0.708,+2.943,-05.4180,-00.7570,-07.8720,-00.038304,-00.036487,+00.072273
-129.804,-034.076,+006.135,+0.711,+0.698,+2.959,-05.2930,-00.9420,-07.7620,-00.036385,-00.042379,+00.084513
-129.689,-034.132,+006.030,+0.706,+0.747,+2.954,-05.4230,-00.8470,-07.8000,-00.038050,-00.030438,+00.094093
-129.556,-034.174,+005.916,+0.711,+0.698,+2.933,-05.4220,-00.7110,-07.7960,-00.032247,-00.023065,+00.101022
-129.450,-034.204,+005.820,+0.706,+0.693,+2.970,-05.3590,-00.6690,-07.7820,-00.029642,-00.020863,+00.063533
-129.388,-034.240,+005.760,+0.720,+0.727,+2.944,-05.4310,-00.7710,-07.7330,-00.027041,-00.028048,+00.047414
-129.314,-034.270,+005.692,+0.720,+0.683,+2.955,-05.3320,-00.7770,-07.8460,-00.020433,-00.023110,+00.061443
-129.248,-034.301,+005.641,+0.715,+0.673,+2.944,-05.3220,-00.5570,-07.6970,-00.002433,-00.022927,+00.033608
-129.227,-034.363,+005.677,+0.729,+0.717,+2.944,-05.3360,-00.4770,-07.7670,+00.067745,-00.068048,+00.010885
-129.198,-034.423,+005.697,+0.720,+0.698,+2.933,-05.3660,-01.0420,-07.8600,+00.027704,-00.050080,+00.039554
-129.177,-034.509,+005.758,+0.720,+0.732,+2.960,-05.3710,-00.5750,-07.8190,+00.097958,-00.094654,-00.001336
-129.183,-034.637,+005.840,+0.739,+0.707,+2.944,-05.3800,-01.1350,-07.8250,+00.027812,-00.118543,+00.031005
-129.082,-034.784,+005.775,+0.729,+0.697,+2.939,-05.4090,-00.7920,-07.7870,-00.017884,-00.123940,+00.108183
-128.943,-034.953,+005.675,+0.739,+0.688,+2.966,-05.3920,-00.7530,-07.7430,-00.014704,-00.152101,+00.121501
-128.770,-035.161,+005.551,+0.757,+0.717,+2.918,-05.5240,-00.9020,-07.7780,-00.025766,-00.173312,+00.149151
-128.512,-035.418,+005.358,+0.762,+0.692,+2.940,-05.4550,-00.7730,-07.7870,-00.041236,-00.229689,+00.225795
-128.215,-035.759,+005.142,+0.771,+0.677,+2.941,-05.4550,-00.7240,-07.7050,-00.029922,-00.309432,+00.246592
-127.915,-036.223,+004.962,+0.794,+0.707,+2.909,-05.2170,-00.4940,-07.7490,-00.002556,-00.442513,+00.238753
-127.662,-036.888,+004.835,+0.827,+0.681,+2.900,-05.3550,-00.4100,-07.9430,+00.017866,-00.655716,+00.220819
-127.459,-037.882,+004.732,+0.850,+0.686,+2.906,-05.4820,-00.4970,-07.8720,+00.010444,-00.985213,+00.221951
-127.249,-039.276,+004.572,+0.915,+0.700,+2.893,-05.6380,-00.4800,-07.6070,-00.057855,-01.326266,+00.244756
-127.092,-041.068,+004.362,+0.975,+0.675,+2.853,-05.6730,-00.4410,-07.4500,-00.125396,-01.710317,+00.226878
-126.998,-043.373,+004.249,+1.044,+0.689,+2.856,-05.9360,-00.2090,-07.2870,+00.054239,-02.192603,+00.183214
-126.941,-046.206,+004.421,+1.160,+0.717,+2.780,-06.1350,-00.4340,-07.3390,+00.262883,-02.588231,+00.243349
-126.703,-049.346,+004.527,+1.262,+0.666,+2.725,-06.8960,-01.2730,-07.5070,+00.158790,-02.762995,+00.426568
-126.091,-052.724,+004.125,+1.359,+0.680,+2.681,-07.5560,-01.1820,-07.3090,+00.027657,-03.010478,+00.619658
-125.035,-056.456,+003.347,+1.503,+0.673,+2.552,-08.0530,-01.3150,-06.7590,+00.065161,-03.343957,+00.823352
-123.220,-060.606,+001.861,+1.614,+0.627,+2.450,-09.4910,-01.3590,-07.6850,+00.082646,-03.707977,+01.049406
-120.857,-065.017,+000.117,+1.716,+0.611,+2.368,-10.7880,-01.7260,-08.2200,+00.412994,-03.894094,+01.023968
-117.453,-069.581,-002.440,+1.840,+0.584,+2.185,-10.4200,-02.1650,-08.8010,+00.507233,-03.995803,+01.134902
-111.573,-073.853,-007.695,+1.924,+0.572,+2.027,-11.2370,-01.9220,-07.3040,+00.227585,-03.735470,+01.342225
-102.492,-077.349,-015.915,+1.965,+0.492,+1.937,-10.2100,-00.7060,-04.7000,+00.717800,-03.182426,+01.301855
-094.501,-078.375,-022.952,+1.979,+0.487,+1.830,-21.7880,-09.3490,-27.5700,+00.692573,+00.040451,+00.704113
-092.784,-077.406,-024.270,+1.932,+0.443,+1.807,-04.3610,-07.4140,-12.0830,-00.066529,+00.880844,+00.675650
-093.778,-075.419,-023.804,+1.854,+0.419,+1.863,-02.4200,-05.2350,-08.6200,-00.539294,+01.836780,+00.438743
-095.579,-073.257,-022.682,+1.784,+0.360,+1.904,-02.2420,-03.0600,-07.4890,-00.436465,+01.966194,+00.276637
-098.114,-070.949,-020.419,+1.738,+0.337,+1.966,-03.4470,-02.8680,-07.8100,+00.042433,+02.222513,+00.013071
-101.213,-068.422,-017.251,+1.696,+0.347,+2.040,-04.4000,-03.1090,-07.8050,+00.308995,+02.491238,-00.299806
-104.728,-065.707,-013.539,+1.632,+0.388,+2.112,-04.1830,-02.1670,-06.7270,+00.489922,+02.629525,-00.655491
-108.348,-062.968,-009.523,+1.544,+0.439,+2.227,-05.2180,-01.4350,-06.8820,+00.757777,+02.606934,-00.977962
-111.921,-060.107,-005.340,+1.433,+0.544,+2.356,-06.9040,-01.3040,-08.2170,+00.984780,+02.737616,-01.251025
-115.261,-056.946,-001.289,+1.252,+0.620,+2.385,-06.7030,-00.8270,-07.8600,+01.074515,+02.864910,-01.401076
-118.078,-053.669,+002.294,+1.076,+0.701,+2.399,-07.3160,-00.0970,-08.1570,+01.126822,+02.831206,-01.425555
-120.388,-050.311,+005.414,+0.956,+0.727,+2.409,-08.3500,-00.6370,-08.7840,+01.110024,+02.851319,-01.442729
-122.270,-046.946,+008.008,+0.808,+0.842,+2.397,-08.4000,-00.3290,-08.1260,+00.982896,+02.724563,-01.398090
-123.799,-043.715,+010.222,+0.669,+0.844,+2.390,-10.4130,-01.0780,-10.0320,+00.987633,+02.641341,-01.369347
-125.092,-040.395,+012.180,+0.585,+0.849,+2.387,-10.1030,-01.6610,-08.6150,+00.925923,+02.649048,-01.392544
-126.291,-037.303,+013.947,+0.488,+0.895,+2.323,-09.8580,-01.7180,-07.0550,+00.870128,+02.294139,-01.417471
-127.610,-034.628,+015.766,+0.418,+0.915,+2.298,-10.1950,-02.0050,-07.2810,+00.953936,+01.864300,-01.577134
-129.191,-032.210,+017.635,+0.358,+0.930,+2.290,-10.9110,-03.5870,-08.1060,+00.757606,+01.609826,-01.773432
-130.808,-029.680,+018.996,+0.298,+1.000,+2.260,-12.7700,-03.0050,-10.6960,+00.302071,+01.859952,-01.883145
-132.212,-026.637,+019.862,+0.219,+0.986,+2.229,-11.3300,-01.1240,-09.3600,+00.147981,+02.285300,-01.897214
-133.291,-023.370,+020.475,+0.159,+1.016,+2.275,-09.6170,-00.6520,-07.0990,+00.130109,+02.390318,-01.686136
-134.018,-020.277,+020.941,+0.080,+1.012,+2.250,-09.1600,-00.6310,-06.3150,+00.211725,+02.264617,-01.407414
-134.569,-017.467,+021.475,-0.008,+1.023,+2.273,-08.3590,-01.5030,-05.5810,+00.358902,+02.015527,-01.275243
-135.179,-014.970,+022.052,-0.073,+1.063,+2.275,-08.2880,-02.2810,-05.4460,+00.336808,+01.726450,-01.295334
-135.850,-012.683,+022.550,-0.161,+1.064,+2.255,-08.0050,-01.4000,-05.8170,+00.288615,+01.588619,-01.261147
-136.378,-010.657,+023.125,-0.254,+1.060,+2.224,-06.5530,-00.1390,-04.9390,+00.511363,+01.350884,-00.960985
-136.571,-009.014,+023.973,-0.314,+1.075,+2.232,-07.1340,+00.1660,-05.1510,+00.837382,+01.210318,-00.603132
-136.507,-007.706,+024.965,-0.356,+1.115,+2.182,-06.1300,-01.0560,-03.9170,+00.814133,+00.930183,-00.309676
-136.272,-006.894,+025.607,-0.393,+1.145,+2.175,-06.0260,-01.2490,-05.1270,+00.467580,+00.636717,-00.014089
-135.897,-006.332,+026.057,-0.420,+1.140,+2.179,-05.5370,-01.4510,-05.2580,+00.433205,+00.553125,+00.121941
-135.511,-006.000,+026.420,-0.434,+1.165,+2.151,-04.7570,-02.4750,-04.1380,+00.283018,+00.291940,+00.183301
-135.315,-006.019,+026.600,-0.439,+1.175,+2.129,-05.0780,-03.1930,-04.1680,+00.117858,-00.064168,+00.137544
-135.397,-006.243,+026.582,-0.444,+1.165,+2.145,-04.2250,-04.7030,-05.0020,-00.135284,-00.288823,-00.058666
-135.869,-006.607,+026.337,-0.430,+1.194,+2.151,-03.7380,-04.1210,-04.8810,-00.286071,-00.575019,-00.328415
-136.613,-008.168,+026.130,-0.407,+1.165,+2.152,+01.8480,-02.6570,-02.3760,-00.167721,-01.960579,+00.249268
-137.078,-010.188,+025.477,-0.346,+1.125,+2.204,-02.1030,-04.8570,-08.1230,-00.902686,-01.706810,+00.597844
-137.156,-013.008,+024.199,-0.272,+1.124,+2.202,+02.5650,-01.6760,-04.4860,-01.337188,-02.654169,+01.190116
-136.997,-016.872,+022.495,-0.156,+1.098,+2.277,-06.4070,-00.6920,-09.5790,-01.436217,-02.993019,+01.478530
-136.637,-020.596,+020.942,-0.054,+1.053,+2.314,-07.5120,-02.1800,-10.3770,-01.049437,-02.840372,+01.347326
-136.537,-023.963,+019.951,+0.048,+1.037,+2.308,-09.2470,-03.0700,-11.4730,-00.742823,-02.600789,+00.977220
-136.280,-026.685,+018.926,+0.136,+0.992,+2.328,-08.0180,-00.5980,-10.1200,-00.747620,-01.982146,+00.945789
-135.957,-028.853,+017.909,+0.182,+0.957,+2.358,-08.7300,-04.0740,-10.8570,-00.883961,-01.515229,+00.795534
-135.577,-030.467,+016.524,+0.247,+0.942,+2.355,-07.9490,-03.8860,-09.3150,-01.184103,-01.113264,+00.650902
-135.082,-031.569,+014.690,+0.284,+0.912,+2.373,-07.5520,-02.0530,-09.5110,-01.512547,-00.686821,+00.618969
-134.553,-032.186,+012.983,+0.289,+0.852,+2.401,-06.9470,-00.6440,-10.3350,-01.035512,-00.316786,+00.431897
-134.073,-032.495,+011.700,+0.307,+0.822,+2.369,-06.9380,-02.3830,-09.2010,-00.899222,-00.146279,+00.392510
-133.599,-032.697,+010.566,+0.312,+0.798,+2.381,-04.9520,-00.0650,-08.1320,-00.616842,-00.060172,+00.344728
-133.191,-032.795,+009.789,+0.307,+0.748,+2.413,-05.4130,-01.2700,-08.2950,-00.433252,-00.017236,+00.300510
-132.798,-032.819,+009.141,+0.321,+0.768,+2.392,-05.9070,-01.7890,-07.7220,-00.351437,+00.048567,+00.276525
-132.450,-032.767,+008.592,+0.312,+0.744,+2.419,-05.2950,-01.1140,-07.8010,-00.286402,+00.092361,+00.228564
-132.182,-032.733,+008.195,+0.321,+0.758,+2.451,-05.1190,-00.7630,-07.8170,-00.178046,+00.033356,+00.164110
-132.037,-032.760,+007.993,+0.316,+0.734,+2.419,-05.2160,-00.8340,-07.7890,-00.055774,-00.034715,+00.068551
-132.049,-032.844,+008.015,+0.321,+0.763,+2.414,-05.1490,-00.9300,-07.8580,+00.050326,-00.102682,-00.032173
-132.187,-032.995,+008.234,+0.321,+0.719,+2.435,-05.3110,-00.9160,-08.0910,+00.132124,-00.153170,-00.093861
-132.280,-033.111,+008.334,+0.330,+0.743,+2.420,-05.5040,-01.4470,-08.0030,-00.000349,-00.075543,-00.022928
-132.258,-033.131,+008.268,+0.321,+0.719,+2.419,-05.4490,-01.3260,-07.9040,-00.064705,+00.007981,+00.034723
-132.191,-033.114,+008.145,+0.326,+0.719,+2.425,-05.1830,-01.2950,-07.9120,-00.075727,+00.020911,+00.053134
-132.104,-033.098,+008.007,+0.326,+0.738,+2.419,-05.3020,-01.1030,-07.8990,-00.079819,+00.032735,+00.060845
-132.029,-033.076,+007.883,+0.326,+0.733,+2.409,-05.2970,-00.8830,-07.9490,-00.069310,+00.021931,+00.043706
-131.977,-033.045,+007.770,+0.312,+0.719,+2.440,-05.2580,-00.9840,-07.9360,-00.075306,+00.036299,+00.033917
-131.916,-032.999,+007.650,+0.330,+0.733,+2.409,-05.2220,-01.1830,-07.8360,-00.083297,+00.055848,+00.049029
-131.820,-032.926,+007.507,+0.321,+0.743,+2.430,-05.2210,-01.1310,-07.8760,-00.076361,+00.082941,+00.065236
-131.704,-032.849,+007.360,+0.316,+0.704,+2.435,-05.0270,-00.7830,-07.7550,-00.069838,+00.067240,+00.075929
-131.620,-032.809,+007.245,+0.316,+0.719,+2.424,-05.0820,-00.7510,-07.8910,-00.050376,+00.027335,+00.044278
-131.593,-032.804,+007.200,+0.316,+0.714,+2.430,-04.9000,-00.9340,-07.6280,-00.014916,-00.006814,+00.007473
-131.595,-032.870,+007.219,+0.321,+0.714,+2.452,-04.9590,-00.9880,-07.7980,+00.031367,-00.080957,+00.002222
-131.621,-032.972,+007.290,+0.326,+0.743,+2.414,-05.2630,-01.0820,-07.9540,+00.049457,-00.084689,-00.007375
-131.648,-033.060,+007.378,+0.330,+0.709,+2.425,-05.1220,-00.9890,-07.8520,+00.076481,-00.077922,-00.012999
-131.739,-033.178,+007.637,+0.330,+0.719,+2.447,-05.2080,-00.7620,-07.9450,+00.264742,-00.132135,-00.083666
-131.848,-033.285,+007.886,+0.335,+0.758,+2.425,-05.3610,-01.0670,-07.8820,+00.103991,-00.082069,-00.044267
-131.896,-033.351,+008.011,+0.330,+0.724,+2.414,-05.1600,-01.3280,-07.8840,+00.088024,-00.059182,-00.017214
-131.918,-033.438,+008.164,+0.335,+0.729,+2.447,-05.1440,-01.2880,-07.8810,+00.148303,-00.085736,-00.000117
-131.953,-033.544,+008.417,+0.335,+0.773,+2.414,-05.2760,-00.9820,-07.8290,+00.229876,-00.092093,-00.025485
-132.042,-033.654,+008.737,+0.349,+0.743,+2.410,-05.0790,-01.0240,-07.8770,+00.237176,-00.116145,-00.062995
-132.138,-033.805,+009.011,+0.349,+0.738,+2.437,-05.2160,-01.2000,-07.7420,+00.117467,-00.145797,-00.027052
-132.145,-033.975,+009.053,+0.349,+0.758,+2.399,-05.2320,-01.5490,-07.7930,+00.007914,-00.152998,+00.045895
-132.090,-034.166,+009.026,+0.367,+0.753,+2.410,-05.3710,-01.2490,-07.7340,+00.001198,-00.161931,+00.067277
-131.996,-034.388,+008.959,+0.363,+0.758,+2.432,-05.3500,-01.4850,-07.6820,-00.025119,-00.188737,+00.123760
-131.852,-034.645,+008.860,+0.377,+0.763,+2.400,-05.2960,-01.1290,-07.7580,-00.008080,-00.208976,+00.135596
-131.713,-034.939,+008.787,+0.386,+0.758,+2.400,-05.4200,-01.1420,-07.7460,+00.009995,-00.259948,+00.137928
-131.559,-035.323,+008.694,+0.395,+0.753,+2.417,-05.3810,-01.4920,-07.6080,-00.027569,-00.346300,+00.189377
-131.330,-035.867,+008.510,+0.414,+0.767,+2.401,-05.4250,-01.0750,-07.7680,-00.042174,-00.510166,+00.231680
-131.125,-036.635,+008.368,+0.441,+0.737,+2.392,-05.3180,-01.0820,-07.9600,-00.001160,-00.735644,+00.246187
-130.938,-037.756,+008.214,+0.469,+0.762,+2.404,-05.4720,-01.1140,-07.7180,-00.035666,-01.087073,+00.291667
-130.752,-039.315,+008.049,+0.515,+0.756,+2.347,-05.3780,-00.9930,-07.8320,-00.051669,-01.471162,+00.324180
-130.580,-041.330,+007.831,+0.590,+0.755,+2.355,-05.7870,-00.9590,-07.2910,-00.103107,-01.875246,+00.370122
-130.377,-043.798,+007.574,+0.645,+0.730,+2.369,-06.1060,-00.9840,-07.1570,-00.102379,-02.261023,+00.477846
-129.988,-046.691,+007.278,+0.752,+0.749,+2.319,-06.2530,-01.0260,-07.5520,+00.051957,-02.585107,+00.605100
-129.316,-049.953,+006.813,+0.854,+0.747,+2.270,-06.6260,-01.4460,-07.6100,+00.011597,-02.903221,+00.802124
-128.161,-053.691,+005.882,+0.942,+0.712,+2.258,-07.2510,-01.5910,-06.5370,+00.015582,-03.321879,+01.046149
-126.427,-057.927,+004.393,+1.057,+0.685,+2.155,-08.4390,-01.0840,-07.0350,-00.108110,-03.798615,+01.231063
-124.021,-062.798,+002.105,+1.187,+0.684,+2.064,-10.2700,-00.4550,-08.2460,-00.127930,-04.392105,+01.250968
-120.564,-068.218,-001.177,+1.317,+0.618,+1.957,-10.5060,-01.5390,-08.9970,-00.039355,-04.887580,+01.306439
-114.782,-073.852,-006.409,+1.465,+0.605,+1.829,-12.4580,-01.5810,-10.2900,+00.345244,-04.976306,+01.300796
-104.510,-078.922,-015.498,+1.576,+0.574,+1.639,-15.8060,-02.8150,-13.2970,+01.133737,-04.344791,+01.146995
-086.945,-081.976,-031.527,+1.636,+0.548,+1.556,+05.1360,-06.7790,-16.5440,+00.860149,-02.314248,+01.432479
-083.926,-080.600,-033.870,+1.636,+0.548,+1.513,+00.5680,-06.7110,-15.8790,+00.329473,+01.871505,+00.801536
-085.359,-078.115,-032.820,+1.589,+0.479,+1.533,-00.6680,-02.7080,-09.9930,-00.512986,+02.011769,+01.086827
-087.514,-075.238,-030.971,+1.561,+0.430,+1.564,-01.2130,-01.7870,-08.1890,+00.015743,+02.577256,+00.870869
-090.592,-072.072,-027.729,+1.515,+0.381,+1.574,-01.6750,-03.5050,-07.2280,+00.318379,+02.882189,+00.580384
-094.126,-068.743,-024.006,+1.478,+0.313,+1.594,-02.3040,-03.5170,-06.7380,+00.396875,+03.152004,+00.165850
-098.149,-065.407,-019.536,+1.455,+0.273,+1.636,-02.8770,-02.4910,-06.9210,+00.880475,+03.241438,-00.416486
-102.632,-062.033,-014.164,+1.492,+0.229,+1.655,-04.1920,-02.8380,-07.7070,+01.304689,+03.352759,-01.039217
-107.436,-058.531,-008.465,+1.566,+0.204,+1.771,-05.5720,-02.5160,-07.8060,+01.317182,+03.404396,-01.662041
-112.167,-054.914,-003.062,+1.627,+0.219,+1.973,-07.2260,-01.6060,-08.2320,+01.239437,+03.340874,-02.079801
-116.412,-051.348,+001.690,+1.609,+0.349,+2.284,-06.6610,-00.1690,-06.6050,+01.151721,+02.924903,-02.187588
-119.870,-047.969,+005.685,+1.415,+0.506,+2.588,-12.8960,-01.3570,-12.5490,+01.191253,+02.917104,-02.139573
-122.676,-044.022,+008.912,+1.155,+0.583,+2.737,-11.8260,-01.2530,-09.7320,+00.971524,+03.241465,-02.087620
-124.906,-040.221,+011.432,+0.854,+0.685,+2.729,-13.3780,-02.2940,-08.8760,+00.854369,+02.892952,-02.000494
-127.071,-036.676,+013.638,+0.623,+0.727,+2.713,-12.7990,-03.5840,-06.8890,+00.704687,+02.514251,-02.203246
-129.428,-033.393,+015.571,+0.497,+0.738,+2.718,-14.1150,-04.8970,-08.3040,+00.335694,+02.306062,-02.427638
-131.752,-029.955,+016.937,+0.363,+0.739,+2.696,-15.4740,-03.3680,-10.3000,+00.041711,+02.523039,-02.538464
-133.739,-026.156,+017.873,+0.205,+0.746,+2.705,-12.2310,-01.0920,-07.0280,+00.000661,+02.716002,-02.321795
-135.102,-022.700,+018.588,+0.066,+0.743,+2.715,-10.5230,+00.7120,-04.4040,+00.267547,+02.363175,-01.747038
-135.885,-020.020,+019.475,-0.045,+0.778,+2.656,-10.4230,+00.3060,-03.5720,+00.638057,+01.805963,-01.147567
-136.280,-018.093,+020.364,-0.133,+0.803,+2.636,-09.6540,-00.7130,-04.0730,+00.651435,+01.281284,-00.752832
-136.508,-016.679,+021.119,-0.179,+0.814,+2.623,-08.8240,-01.0310,-05.5670,+00.581095,+00.999310,-00.541470
-136.610,-015.367,+021.820,-0.230,+0.849,+2.567,-08.8640,-01.5940,-07.1030,+00.587349,+01.108953,-00.503353
-136.606,-013.929,+022.465,-0.281,+0.903,+2.559,-06.8500,-01.2210,-05.6750,+00.538275,+01.155939,-00.414562
-136.399,-012.681,+023.024,-0.332,+0.879,+2.546,-06.0090,-00.9100,-05.4910,+00.537562,+01.029204,-00.180586
-136.085,-011.647,+023.547,-0.369,+0.909,+2.474,-05.0940,-01.9410,-05.3800,+00.482251,+00.871234,-00.094869
-135.914,-010.802,+023.948,-0.402,+0.934,+2.478,-04.4780,-02.7590,-05.0960,+00.306549,+00.638514,-00.222787
-136.044,-010.121,+024.197,-0.416,+0.954,+2.504,-04.1200,-02.7640,-05.4230,+00.146832,+00.427694,-00.405343
-136.298,-009.531,+024.431,-0.444,+0.939,+2.465,-04.3120,-01.6930,-06.5280,+00.213678,+00.390105,-00.398236
-136.431,-008.971,+024.828,-0.476,+0.934,+2.437,-02.5220,-00.9160,-06.1310,+00.390619,+00.367360,-00.246134
-136.466,-008.555,+025.311,-0.490,+0.949,+2.447,-02.9280,-01.2310,-06.5640,+00.395177,+00.289960,-00.158266
-136.493,-008.276,+025.603,-0.499,+0.969,+2.425,-02.8740,-01.5880,-06.5300,+00.153778,+00.144432,-00.095114
-136.442,-008.127,+025.664,-0.518,+0.969,+2.386,-03.6860,-01.9930,-08.7170,+00.033102,+00.199021,+00.029931
-136.154,-007.852,+025.674,-0.527,+0.979,+2.434,-02.4950,-02.7770,-08.3780,+00.053543,+00.381564,+00.175491
-135.726,-007.572,+025.651,-0.536,+0.964,+2.402,-01.9160,-04.1710,-06.0950,-00.009047,+00.338251,+00.217151
-135.612,-007.473,+025.451,-0.541,+0.950,+2.385,-01.4900,-05.3030,-05.0200,-00.257980,-00.031597,-00.092851
-136.139,-007.523,+025.140,-0.550,+0.925,+2.396,-01.9060,-04.5300,-05.7220,-00.379504,-00.353794,-00.540820
-137.022,-007.838,+024.674,-0.536,+0.905,+2.386,-02.5960,-03.6610,-07.8570,-00.566946,-00.646101,-00.556127
-137.657,-008.596,+024.074,-0.509,+0.895,+2.409,-04.3770,-00.3320,-03.9000,-00.919154,-01.205787,+00.334303
-137.252,-010.865,+022.983,-0.458,+0.845,+2.454,-03.1390,-01.2720,-07.6540,-00.964331,-01.730523,+01.312969
-137.175,-012.941,+022.431,-0.393,+0.869,+2.468,-00.5960,-04.0360,-06.3830,-00.338147,-01.742641,+00.498016
-137.591,-015.801,+021.996,-0.300,+0.799,+2.494,-04.5980,-04.4890,-10.4380,-00.577950,-02.666365,+00.706686
-137.737,-018.798,+021.173,-0.207,+0.779,+2.531,-04.7770,-00.4800,-09.1540,-00.741132,-02.411300,+00.899367
-137.704,-021.788,+020.377,-0.115,+0.768,+2.529,-04.8840,-01.5860,-08.5000,-00.605047,-02.469119,+00.953204
-137.738,-024.508,+019.934,-0.013,+0.757,+2.534,-08.0440,-02.7850,-10.6930,-00.373053,-02.001928,+00.749041
-137.625,-026.808,+019.486,+0.052,+0.732,+2.559,-06.3960,-03.1590,-09.4490,-00.321810,-01.798201,+00.708759
-137.505,-028.834,+018.988,+0.122,+0.726,+2.551,-09.4040,-03.8110,-11.2140,-00.435899,-01.461439,+00.648703
-137.266,-030.144,+018.316,+0.168,+0.686,+2.580,-06.7630,-02.9270,-08.5250,-00.473472,-00.879754,+00.473632
-137.020,-031.075,+017.529,+0.191,+0.686,+2.587,-06.5330,-02.7900,-08.7820,-00.633033,-00.610343,+00.391080
-136.713,-031.693,+016.519,+0.224,+0.626,+2.561,-05.7640,-03.0980,-07.8440,-00.772543,-00.361354,+00.349286
-136.376,-032.166,+015.392,+0.242,+0.597,+2.579,-05.8610,-01.6080,-08.2890,-00.807635,-00.270227,+00.354243
-136.016,-032.495,+014.364,+0.237,+0.592,+2.616,-05.5330,-01.6910,-08.1620,-00.671511,-00.189773,+00.302715
-135.740,-032.725,+013.576,+0.256,+0.552,+2.601,-05.8310,-01.8540,-08.5110,-00.485398,-00.124329,+00.207413
-135.582,-032.857,+013.094,+0.256,+0.532,+2.607,-05.5380,-00.9850,-08.3620,-00.263508,-00.072772,+00.101744
-135.565,-032.965,+012.912,+0.256,+0.533,+2.617,-05.4400,-01.4950,-07.9250,-00.100625,-00.092488,+00.003250
-135.619,-033.031,+012.887,+0.251,+0.523,+2.601,-05.2810,-01.8610,-07.7620,-00.033710,-00.046337,-00.035441
-135.701,-033.060,+012.947,+0.256,+0.552,+2.623,-05.3750,-01.4920,-07.8950,+00.037260,-00.029161,-00.064888
-135.800,-033.048,+013.061,+0.261,+0.523,+2.629,-05.4200,-01.9970,-07.5930,+00.045927,+00.007310,-00.072002
-135.869,-033.016,+013.064,+0.256,+0.523,+2.596,-05.1360,-01.9230,-07.6600,-00.073505,+00.013537,-00.044067
-135.901,-033.002,+012.986,+0.256,+0.518,+2.591,-05.3250,-01.8540,-07.6650,-00.090265,+00.007995,-00.014593
-135.884,-032.978,+012.822,+0.256,+0.483,+2.612,-05.1490,-01.6720,-07.9790,-00.177700,+00.034586,+00.037753
-135.748,-032.954,+012.450,+0.261,+0.527,+2.602,-05.0510,-01.7900,-07.6920,-00.314043,+00.037780,+00.121917
-135.538,-032.943,+011.918,+0.260,+0.488,+2.607,-05.0220,-01.6080,-07.6740,-00.420663,+00.043119,+00.170425
-135.228,-032.941,+011.168,+0.256,+0.454,+2.634,-04.8560,-01.7410,-08.0510,-00.551854,+00.061851,+00.255548
-134.816,-032.907,+010.349,+0.247,+0.453,+2.601,-05.1020,-01.6420,-07.9540,-00.478799,+00.107531,+00.300617
-134.363,-032.807,+009.613,+0.247,+0.434,+2.612,-05.1780,-01.4990,-07.9290,-00.403936,+00.165116,+00.317463
-133.932,-032.650,+009.012,+0.228,+0.394,+2.628,-05.7190,-01.0590,-07.7830,-00.275951,+00.189565,+00.263769
-133.598,-032.479,+008.570,+0.242,+0.389,+2.602,-05.2190,-01.0350,-07.8830,-00.208231,+00.171984,+00.204472
-133.328,-032.341,+008.212,+0.233,+0.394,+2.617,-05.1990,-00.9890,-07.9030,-00.182090,+00.138389,+00.168769
-133.097,-032.210,+007.878,+0.219,+0.390,+2.633,-04.9480,-01.1000,-07.9520,-00.178017,+00.130879,+00.148814
-132.891,-032.108,+007.594,+0.219,+0.399,+2.628,-04.9950,-00.8810,-07.9360,-00.136943,+00.088208,+00.128763
-132.723,-032.047,+007.362,+0.223,+0.370,+2.639,-04.9610,-00.9670,-07.8730,-00.116831,+00.059263,+00.109436
-132.575,-032.014,+007.171,+0.214,+0.365,+2.628,-04.8910,-01.0830,-07.9420,-00.088387,+00.030099,+00.111042
-132.413,-032.011,+006.997,+0.209,+0.375,+2.627,-04.9860,-00.9740,-07.9040,-00.067321,+00.012702,+00.121523
-132.261,-032.038,+006.857,+0.219,+0.380,+2.606,-04.9580,-00.8160,-07.8650,-00.046935,-00.018003,+00.110189
-132.118,-032.091,+006.735,+0.214,+0.350,+2.660,-04.8090,-00.8780,-07.9650,-00.029013,-00.049544,+00.115829
-131.972,-032.182,+006.620,+0.223,+0.375,+2.623,-04.8390,-00.7740,-07.7860,-00.035180,-00.077114,+00.119102
-131.833,-032.307,+006.504,+0.228,+0.355,+2.618,-04.7960,-00.6900,-07.8420,-00.041531,-00.113961,+00.113273
-131.704,-032.472,+006.380,+0.237,+0.380,+2.645,-05.0230,-00.7130,-08.1160,-00.057483,-00.144406,+00.109917
-131.582,-032.670,+006.250,+0.232,+0.360,+2.612,-04.9540,-00.8890,-07.9390,-00.051941,-00.179713,+00.113450
-131.457,-032.938,+006.147,+0.246,+0.360,+2.613,-04.9890,-00.8670,-07.9100,-00.022624,-00.246719,+00.119750
-131.307,-033.256,+006.033,+0.256,+0.370,+2.656,-05.2020,-00.8400,-08.0010,-00.030481,-00.280232,+00.148759
-131.113,-033.629,+005.882,+0.279,+0.354,+2.620,-05.1630,-01.0080,-07.9880,-00.040133,-00.335319,+00.193103
-130.853,-034.094,+005.682,+0.283,+0.344,+2.609,-05.3590,-00.7980,-07.8750,-00.053809,-00.433704,+00.250665
-130.507,-034.724,+005.466,+0.297,+0.344,+2.637,-05.1570,-01.0890,-08.1060,-00.003605,-00.595065,+00.338618
-129.982,-035.640,+005.147,+0.339,+0.339,+2.623,-05.4770,-00.5100,-07.9550,-00.020577,-00.882601,+00.490995
-129.443,-037.003,+004.753,+0.395,+0.328,+2.609,-05.1910,-00.6480,-08.0870,-00.080154,-01.326686,+00.488712
-128.937,-038.989,+004.325,+0.432,+0.333,+2.616,-05.1490,-00.3670,-08.1650,-00.120243,-01.949988,+00.458283
-128.550,-041.841,+003.931,+0.538,+0.352,+2.577,-04.9540,-00.2380,-07.6740,-00.096084,-02.808130,+00.448692
-128.034,-045.774,+003.650,+0.677,+0.325,+2.557,-04.8220,-00.5080,-08.2670,+00.203889,-03.696208,+00.616583
-127.229,-050.480,+003.421,+0.798,+0.329,+2.535,-06.6690,-01.1520,-08.6290,+00.374267,-04.290503,+00.758871
-126.010,-055.921,+002.855,+0.992,+0.341,+2.425,-08.3480,-01.4870,-09.3570,+00.334242,-04.956234,+01.005360
-123.736,-062.186,+001.182,+1.196,+0.349,+2.310,-12.4240,-02.2520,-11.7640,+00.296339,-05.644605,+01.293986
-119.728,-068.833,-002.221,+1.340,+0.307,+2.203,-12.3340,-01.6530,-11.3590,+00.276085,-05.867093,+01.423384
-112.307,-075.111,-009.052,+1.529,+0.280,+2.017,-14.8690,-04.6000,-13.1560,+00.013931,-05.274945,+01.521696
-099.228,-078.978,-022.255,+1.654,+0.223,+1.878,+00.8480,-04.3620,-23.3030,-00.620490,-02.543709,+01.607503
-093.991,-078.617,-027.435,+1.650,+0.218,+1.850,+01.5400,-06.5050,-14.7030,+00.068199,+00.699595,+00.658219
-093.232,-077.259,-028.554,+1.622,+0.194,+1.844,-01.4550,-05.4200,-12.7280,-00.511075,+01.314996,+00.672523
-094.795,-075.252,-027.560,+1.566,+0.179,+1.836,+00.4820,-03.6100,-08.4040,-00.398923,+01.862335,+00.479577
-097.222,-072.963,-025.515,+1.529,+0.155,+1.916,-00.3850,-03.3330,-07.7200,-00.169669,+02.156225,+00.298558
-100.570,-070.287,-022.308,+1.464,+0.215,+1.923,-02.5190,-03.4530,-08.8570,+00.145440,+02.752404,-00.023358
-104.721,-067.167,-018.000,+1.395,+0.236,+1.958,-02.2210,-02.9980,-08.0780,+00.535647,+03.112066,-00.469707
-109.230,-063.781,-013.014,+1.335,+0.237,+1.998,-04.1230,-02.7630,-09.1370,+00.894964,+03.411058,-00.962427
-113.685,-059.925,-007.865,+1.279,+0.322,+2.011,-05.2340,-01.7820,-08.7410,+01.159559,+03.751894,-01.308524
-117.509,-055.788,-003.132,+1.191,+0.387,+2.056,-05.9000,-00.5600,-07.8750,+01.400092,+03.726419,-01.471361
-120.584,-051.741,+001.108,+1.154,+0.447,+2.102,-06.5290,-00.6080,-07.8530,+01.597075,+03.426203,-01.547927
-123.149,-047.804,+005.072,+1.122,+0.561,+2.138,-11.0360,-00.1710,-12.9980,+01.876882,+03.437125,-01.681705
-125.186,-043.352,+008.864,+1.021,+0.681,+2.267,-10.9250,-00.2640,-11.4140,+02.055774,+03.773900,-01.674423
-126.583,-038.950,+011.966,+0.914,+0.816,+2.353,-12.4940,-01.2560,-10.7410,+01.800554,+03.494832,-01.585211
-127.866,-034.670,+014.704,+0.715,+0.927,+2.403,-14.8180,-02.2620,-11.6170,+01.697636,+03.430944,-01.861070
-129.252,-030.643,+017.409,+0.530,+1.033,+2.426,-12.6780,-01.1000,-07.6580,+01.719378,+02.777333,-01.946288
-130.485,-027.056,+019.744,+0.400,+1.059,+2.361,-16.1260,-02.5430,-09.7530,+01.353434,+02.699835,-01.865722
-131.520,-023.381,+021.665,+0.256,+1.109,+2.301,-14.7510,-00.7960,-07.7890,+01.330498,+02.698229,-01.940513
-132.542,-019.705,+023.632,+0.159,+1.125,+2.248,-13.6480,-01.1320,-06.7610,+01.386835,+02.614208,-02.025054
-133.411,-016.080,+025.366,+0.080,+1.155,+2.233,-13.0300,-00.6530,-06.2500,+01.175876,+02.572513,-01.907316
-133.946,-012.725,+026.547,+0.002,+1.190,+2.186,-10.1980,+00.9620,-02.9260,+00.771328,+02.277603,-01.529947
-134.183,-010.148,+027.434,-0.082,+1.186,+2.167,-10.5470,+02.2480,-02.7800,+00.776540,+01.730677,-01.011426
-134.166,-008.180,+028.479,-0.114,+1.236,+2.170,-10.3220,+01.0640,-01.6470,+00.940018,+01.373170,-00.689141
-134.144,-006.836,+029.186,-0.147,+1.266,+2.131,-08.3150,-01.8540,-01.0660,+00.343191,+00.802649,-00.478074
-134.316,-006.107,+029.128,-0.175,+1.251,+2.151,-06.6430,-02.4070,-02.7300,-00.236826,+00.330839,-00.441509
-134.690,-005.755,+028.910,-0.179,+1.261,+2.183,-05.1450,-02.5280,-04.4370,-00.146567,+00.008063,-00.430689
-135.167,-005.527,+029.018,-0.189,+1.276,+2.177,-05.4470,-03.7420,-06.0340,+00.144885,-00.008433,-00.493545
-135.744,-005.317,+029.194,-0.184,+1.261,+2.183,-04.2720,-04.1120,-04.1220,+00.060364,-00.182482,-00.536046
-136.635,-005.426,+029.281,-0.184,+1.266,+2.205,-05.1470,-04.0350,-02.7730,-00.009658,-00.638172,-00.706707
-137.947,-006.293,+029.146,-0.161,+1.266,+2.206,-02.2620,-01.5330,+05.4370,-00.921727,-01.834524,-00.255834
-139.021,-008.477,+028.470,-0.082,+1.226,+2.253,-01.8980,-06.3610,-10.9510,-01.091852,-01.987103,+00.361274
-138.989,-011.519,+026.464,+0.016,+1.191,+2.311,+03.0090,+01.4620,-04.2730,-01.932121,-02.718435,+01.610661
-138.743,-015.592,+024.367,+0.187,+1.170,+2.351,-04.9610,+00.9400,-09.2870,-01.711749,-03.185605,+01.760275
-138.263,-019.484,+022.709,+0.345,+1.129,+2.364,-09.8150,-00.0870,-13.5440,-01.141605,-02.658620,+01.648669
-137.540,-022.826,+021.375,+0.456,+1.083,+2.390,-07.9140,-01.5850,-11.1420,-00.780734,-02.431017,+01.593448
-136.826,-025.491,+020.353,+0.562,+1.067,+2.374,-08.3480,-03.8770,-09.9280,-00.600668,-01.722926,+01.210615
-136.343,-027.725,+019.249,+0.660,+1.007,+2.395,-07.5940,-06.9530,-08.8460,-00.957523,-01.692161,+00.897685
-135.944,-029.783,+017.658,+0.725,+0.967,+2.392,-08.0490,-03.0240,-09.4410,-01.408173,-01.475906,+00.898187
-135.279,-031.244,+015.241,+0.808,+0.907,+2.413,-07.5510,-04.0090,-08.5040,-01.897260,-00.821556,+00.756081
-134.503,-032.172,+012.746,+0.849,+0.827,+2.426,-07.6790,+00.1720,-12.1600,-01.537737,-00.446817,+00.695668
-133.852,-032.597,+011.169,+0.859,+0.758,+2.448,-07.2570,-00.5670,-10.6090,-00.830044,-00.234693,+00.442574
-133.505,-032.838,+010.393,+0.873,+0.768,+2.443,-06.1450,+00.3850,-08.7700,-00.319627,-00.127185,+00.187978
-133.449,-032.994,+010.167,+0.882,+0.763,+2.465,-05.5940,-00.6400,-08.1080,-00.086037,-00.122377,-00.000910
-133.575,-033.129,+010.238,+0.891,+0.763,+2.450,-05.3890,-01.3370,-07.8840,+00.031493,-00.121440,-00.098607
-133.738,-033.223,+010.396,+0.886,+0.758,+2.428,-05.3690,-01.6720,-07.8060,+00.084417,-00.100200,-00.096479
-133.871,-033.304,+010.583,+0.891,+0.763,+2.439,-05.1320,-01.7030,-07.6480,+00.107174,-00.087870,-00.070757
-133.965,-033.377,+010.767,+0.886,+0.748,+2.444,-05.3690,-01.2730,-07.8050,+00.127309,-00.067903,-00.053578
-134.080,-033.444,+011.008,+0.900,+0.762,+2.412,-05.3750,-01.2320,-07.8520,+00.167626,-00.078655,-00.089157
-134.244,-033.527,+011.294,+0.891,+0.782,+2.412,-05.1270,-01.5230,-07.7640,+00.172667,-00.113796,-00.107520
-134.415,-033.664,+011.586,+0.905,+0.812,+2.450,-05.2490,-01.7680,-07.7520,+00.165505,-00.154734,-00.088304
-134.557,-033.800,+011.837,+0.900,+0.807,+2.428,-05.4130,-01.6480,-07.7370,+00.151455,-00.125968,-00.079439
-134.716,-033.928,+012.110,+0.910,+0.787,+2.391,-05.2080,-01.5900,-07.7550,+00.161519,-00.140700,-00.093790
-134.875,-034.084,+012.371,+0.905,+0.822,+2.434,-05.3450,-01.8190,-07.5970,+00.138668,-00.155163,-00.077725
-134.992,-034.212,+012.559,+0.914,+0.822,+2.412,-05.4980,-01.5980,-07.6150,+00.094679,-00.109755,-00.055959
-135.087,-034.298,+012.694,+0.914,+0.831,+2.407,-05.4670,-01.8170,-07.6820,+00.055342,-00.073207,-00.041183
-135.109,-034.349,+012.719,+0.924,+0.812,+2.413,-05.2700,-01.9670,-07.5300,-00.019056,-00.026206,+00.018768
-135.043,-034.365,+012.633,+0.924,+0.821,+2.397,-05.5160,-01.6900,-07.5740,-00.054098,+00.015371,+00.056456
-134.965,-034.325,+012.524,+0.910,+0.812,+2.407,-05.4650,-01.5560,-07.6310,-00.062392,+00.061731,+00.042678
-134.852,-034.254,+012.346,+0.919,+0.812,+2.413,-05.2330,-01.7530,-07.7330,-00.128246,+00.088377,+00.087985
-134.637,-034.142,+012.022,+0.924,+0.802,+2.418,-05.4140,-01.7880,-07.7180,-00.212826,+00.169364,+00.161435
-134.289,-033.934,+011.533,+0.910,+0.807,+2.418,-05.3070,-01.8740,-07.5220,-00.276818,+00.252177,+00.233492
-133.866,-033.701,+010.963,+0.910,+0.767,+2.418,-05.2500,-01.7210,-07.7000,-00.295609,+00.250005,+00.271930
-133.448,-033.523,+010.425,+0.900,+0.777,+2.434,-05.1420,-01.4930,-07.7470,-00.250148,+00.176917,+00.267200
-133.092,-033.444,+009.999,+0.900,+0.758,+2.450,-05.1880,-01.0220,-07.7790,-00.168400,+00.078244,+00.216775
-132.873,-033.458,+009.749,+0.910,+0.733,+2.461,-05.0540,-01.0850,-07.7800,-00.081945,-00.020926,+00.129192
-132.743,-033.560,+009.624,+0.905,+0.762,+2.439,-05.1230,-01.2390,-07.7930,-00.035423,-00.096433,+00.105902
-132.635,-033.726,+009.545,+0.919,+0.777,+2.440,-05.1430,-01.3240,-07.7520,-00.003430,-00.147360,+00.104056
-132.517,-033.958,+009.492,+0.919,+0.752,+2.451,-05.1870,-01.2240,-07.8420,+00.017221,-00.214739,+00.127846
-132.408,-034.255,+009.471,+0.937,+0.757,+2.436,-05.3110,-01.2600,-07.7870,+00.037350,-00.255140,+00.119375
-132.294,-034.588,+009.439,+0.937,+0.772,+2.430,-05.4430,-01.2650,-07.7820,+00.014803,-00.280167,+00.132823
-132.184,-034.972,+009.397,+0.951,+0.727,+2.447,-05.6310,-01.1940,-07.5710,+00.027065,-00.344353,+00.132511
-132.061,-035.429,+009.339,+0.979,+0.747,+2.421,-05.4280,-01.4360,-07.6310,+00.000144,-00.409458,+00.175523
-131.863,-036.031,+009.232,+0.988,+0.717,+2.384,-05.2920,-01.0220,-07.7630,+00.007937,-00.576991,+00.233820
-131.689,-036.874,+009.171,+1.012,+0.732,+2.434,-05.4730,-01.0710,-07.6840,+00.052731,-00.792465,+00.246078
-131.534,-038.035,+009.157,+1.058,+0.756,+2.381,-05.6030,-00.7680,-07.7840,+00.066586,-01.119797,+00.280363
-131.440,-039.625,+009.164,+1.104,+0.715,+2.335,-05.4120,-00.9580,-07.3810,+00.054602,-01.514666,+00.287666
-131.413,-041.690,+009.193,+1.146,+0.695,+2.343,-05.7340,-01.0360,-07.4780,+00.027192,-01.936361,+00.326075
-131.382,-044.303,+009.206,+1.239,+0.729,+2.282,-05.8490,-01.1330,-07.2990,+00.045272,-02.425937,+00.428491
-131.243,-047.510,+009.274,+1.340,+0.693,+2.233,-05.8950,-01.4410,-07.5800,+00.206274,-02.954258,+00.609415
-130.913,-051.324,+009.363,+1.428,+0.702,+2.177,-06.5950,-01.8370,-07.7940,+00.358024,-03.448409,+00.789618
-130.277,-055.856,+009.300,+1.563,+0.685,+2.032,-07.2020,-01.7930,-07.2590,+00.396166,-04.139363,+01.093184
-129.235,-061.349,+008.806,+1.711,+0.688,+1.925,-09.6770,-01.8900,-08.4210,+00.268504,-04.966619,+01.289516
-128.013,-067.699,+008.095,+1.831,+0.621,+1.802,-09.9840,-02.4100,-09.1580,+00.337465,-05.731801,+01.317735
-125.886,-075.096,+006.559,+1.984,+0.599,+1.571,-14.1750,-02.7600,-11.7110,+00.523503,-06.641430,+01.417548
-120.352,-082.296,+001.899,+2.090,+0.557,+1.371,-16.3790,-02.1650,-14.7130,+00.832575,-05.601976,+01.360005
-102.137,-087.238,-014.429,+2.136,+0.566,+1.254,-01.2360,-07.1590,-13.0720,+01.787462,-03.510481,+00.873622
-085.819,-087.327,-030.381,+2.122,+0.551,+1.216,-03.2790,-12.3630,-18.9610,-00.782833,+01.329306,+00.267965
-092.427,-085.969,-025.531,+2.062,+0.558,+1.391,-00.2770,-03.4390,-10.8410,-01.706209,+01.065714,+00.372716
-096.971,-084.132,-022.404,+1.983,+0.529,+1.485,-02.2380,-01.7890,-11.7380,-00.880266,+01.896143,+00.329141
-101.185,-081.398,-019.010,+1.849,+0.541,+1.593,-01.7510,-03.6500,-09.5950,-00.660244,+02.653240,+00.458103
-104.672,-077.774,-016.394,+1.696,+0.479,+1.656,-02.4540,-03.8280,-08.3550,-00.705382,+03.464938,+00.388952
-108.296,-073.614,-013.473,+1.580,+0.465,+1.727,-02.4060,-03.5350,-06.6670,-00.344511,+03.787066,+00.010146
-112.564,-069.341,-009.416,+1.483,+0.432,+1.712,-03.9000,-04.4140,-06.6590,+00.184922,+03.941425,-00.691402
-117.339,-064.948,-004.689,+1.423,+0.418,+1.753,-05.5500,-04.7630,-06.7380,+00.307736,+04.029444,-01.387632
-122.094,-060.394,-000.008,+1.390,+0.433,+1.838,-07.6670,-03.2390,-07.6620,+00.494600,+04.063949,-01.931284
-126.372,-055.626,+004.340,+1.363,+0.533,+1.933,-08.2430,-02.7060,-06.9970,+00.679873,+04.030519,-02.208791
-129.847,-051.110,+007.965,+1.326,+0.658,+2.081,-09.6640,-01.3870,-07.7480,+00.802079,+03.559589,-02.200420
-132.536,-046.563,+011.161,+1.257,+0.733,+2.207,-15.3700,-02.9720,-12.5180,+01.043102,+03.848234,-02.174889
-134.390,-041.762,+013.478,+1.132,+0.903,+2.378,-13.9830,-02.5940,-08.2400,+00.815974,+03.707208,-01.922666
-135.800,-037.472,+015.281,+0.901,+1.060,+2.545,-15.5520,-04.0110,-07.5340,+00.771165,+03.206228,-01.841357
-137.174,-033.527,+016.828,+0.656,+1.136,+2.577,-17.1760,-05.1900,-09.5660,+00.566259,+03.016746,-01.928697
-138.372,-029.337,+017.964,+0.373,+1.174,+2.526,-15.6780,-02.8230,-09.6430,+00.429830,+03.359614,-01.923786
-139.155,-024.910,+018.991,+0.150,+1.161,+2.463,-13.8360,-01.5040,-08.1740,+00.679943,+03.522925,-01.712660
-139.524,-020.523,+019.962,-0.003,+1.197,+2.429,-12.4110,-01.8860,-06.6550,+00.723219,+03.477381,-01.465629
-139.642,-016.423,+020.912,-0.147,+1.207,+2.336,-11.3470,-00.8280,-05.4550,+00.874751,+03.206822,-01.272595
-139.646,-012.795,+022.154,-0.272,+1.164,+2.223,-10.4260,+00.0770,-03.9690,+01.213750,+02.771408,-01.090950
-139.546,-009.766,+023.874,-0.351,+1.189,+2.203,-10.5350,+01.7270,-03.3620,+01.708408,+02.306310,-00.858300
-139.204,-007.361,+026.162,-0.402,+1.248,+2.098,-10.2370,+03.8940,-02.4990,+02.214233,+01.857197,-00.449625
-138.564,-005.663,+028.732,-0.439,+1.303,+2.026,-10.6640,+03.2120,-01.4070,+02.219926,+01.390326,-00.045883
-137.859,-004.760,+030.481,-0.457,+1.337,+1.998,-10.3470,+01.0490,+00.6810,+01.114359,+00.696381,+00.248721
-137.342,-004.861,+030.965,-0.430,+1.391,+1.950,-09.9450,+00.3700,+00.1770,+00.169229,-00.140260,+00.545360
-136.937,-005.631,+030.906,-0.402,+1.342,+1.952,-09.6310,-02.1100,-02.6480,-00.082905,-00.490399,+00.659464
-136.837,-006.597,+030.719,-0.374,+1.331,+1.953,-07.8630,-03.7140,-01.9920,-00.196295,-00.837896,+00.380042
-137.287,-007.707,+030.566,-0.342,+1.321,+1.922,-02.3620,-11.2490,-15.3970,-00.000381,-01.046217,-00.062028
-137.331,-010.183,+029.575,-0.254,+1.320,+1.959,+00.3020,-04.1380,-03.6750,-01.355065,-02.407940,+01.810163
-136.969,-013.541,+027.659,-0.156,+1.290,+2.028,-00.6240,-04.9060,-05.8080,-01.672499,-02.530495,+01.576244
-136.926,-017.253,+025.972,-0.031,+1.220,+2.045,-05.7440,-01.6950,-10.5080,-01.389255,-02.937412,+01.440068
-136.649,-021.007,+024.506,+0.085,+1.149,+2.056,-05.3810,+03.4130,-09.5460,-01.076437,-02.850761,+01.771961
-136.160,-024.736,+023.397,+0.191,+1.114,+2.066,-09.8680,-05.4580,-10.9050,-00.719013,-02.686170,+01.505353
-135.724,-027.852,+021.924,+0.312,+1.093,+2.044,-10.9800,-06.5310,-10.6330,-01.375448,-02.109724,+01.255089
-135.072,-030.141,+019.511,+0.390,+0.978,+2.070,-08.0910,-03.0460,-09.4170,-01.979666,-01.435029,+01.084016
-134.130,-031.600,+016.065,+0.432,+0.919,+2.094,-06.1430,-01.0900,-07.6730,-02.555932,-00.902264,+01.035296
-133.076,-032.465,+013.141,+0.474,+0.874,+2.112,-07.9780,-00.6100,-10.7700,-01.680244,-00.343902,+00.822797
-132.201,-032.777,+011.258,+0.488,+0.795,+2.141,-05.3860,-00.2830,-08.1100,-01.031373,-00.056525,+00.621554
-131.585,-032.871,+010.188,+0.492,+0.785,+2.157,-05.6140,+00.0470,-08.1740,-00.479374,-00.002328,+00.368383
-131.232,-032.935,+009.572,+0.497,+0.770,+2.141,-05.4470,-00.8580,-08.0450,-00.320019,-00.011939,+00.215443
-130.995,-032.993,+009.151,+0.497,+0.765,+2.152,-05.4980,-01.1230,-07.7130,-00.227737,-00.025991,+00.158337
-130.830,-033.023,+008.857,+0.497,+0.745,+2.168,-05.4080,-01.3060,-07.7530,-00.153568,+00.004662,+00.113127
-130.664,-033.004,+008.583,+0.511,+0.765,+2.158,-05.4810,-01.2440,-07.8640,-00.149234,+00.049867,+00.114132
-130.538,-032.954,+008.373,+0.506,+0.740,+2.158,-05.2610,-00.8570,-07.8050,-00.105094,+00.049602,+00.060636
-130.495,-032.930,+008.279,+0.492,+0.736,+2.174,-05.1910,-00.9400,-07.8660,-00.040487,+00.012185,+00.011268
-130.461,-032.919,+008.185,+0.497,+0.740,+2.163,-05.2810,-01.0270,-07.8660,-00.067584,+00.014440,+00.028646
-130.435,-032.919,+008.103,+0.506,+0.755,+2.152,-05.1750,-00.9320,-07.9180,-00.051133,-00.010060,+00.011888
-130.437,-032.946,+008.062,+0.501,+0.755,+2.174,-05.3060,-01.0860,-07.8980,-00.023237,-00.020313,-00.003982
-130.441,-032.957,+008.032,+0.515,+0.725,+2.169,-05.2450,-01.1310,-07.9760,-00.038472,+00.005453,+00.003318
-130.434,-032.947,+007.982,+0.506,+0.730,+2.153,-05.2090,-01.0360,-07.9870,-00.040449,+00.008224,+00.003414
-130.424,-032.948,+007.934,+0.506,+0.745,+2.174,-05.0690,-01.2130,-07.8910,-00.038851,-00.007449,+00.013862
-130.386,-032.955,+007.851,+0.506,+0.735,+2.158,-05.1540,-01.1660,-07.9080,-00.059847,+00.004842,+00.033269
-130.326,-032.955,+007.761,+0.506,+0.730,+2.153,-05.2500,-01.0710,-07.8920,-00.042934,+00.008800,+00.047218
-130.250,-032.940,+007.665,+0.506,+0.711,+2.174,-05.2160,-01.0730,-07.8810,-00.057932,+00.029816,+00.058259
-130.141,-032.877,+007.509,+0.506,+0.740,+2.158,-05.2330,-00.9990,-07.8500,-00.093716,+00.085292,+00.079062
-130.006,-032.774,+007.330,+0.501,+0.701,+2.142,-05.1530,-01.0810,-07.8380,-00.092412,+00.107506,+00.092015
-129.854,-032.679,+007.162,+0.501,+0.716,+2.163,-05.0680,-01.0040,-07.7490,-00.066066,+00.087489,+00.103072
-129.712,-032.596,+007.025,+0.497,+0.711,+2.152,-05.0150,-00.9860,-07.8860,-00.040673,+00.080855,+00.085494
-129.607,-032.541,+006.943,+0.497,+0.701,+2.179,-04.9840,-00.8700,-07.9510,-00.015379,+00.040620,+00.063401
-129.516,-032.529,+006.869,+0.501,+0.696,+2.174,-05.0870,-00.8980,-07.9240,-00.029960,+00.006521,+00.068424
-129.406,-032.540,+006.762,+0.492,+0.701,+2.152,-05.0230,-00.9660,-07.9000,-00.042468,-00.004721,+00.088470
-129.281,-032.568,+006.648,+0.501,+0.736,+2.179,-05.0800,-00.9850,-07.9160,-00.038947,-00.019929,+00.103477
-129.140,-032.613,+006.521,+0.511,+0.696,+2.164,-05.1070,-00.8140,-07.9130,-00.052016,-00.026301,+00.109496
-129.000,-032.664,+006.378,+0.506,+0.711,+2.164,-05.0840,-00.7310,-07.9150,-00.058304,-00.038049,+00.097160
-128.879,-032.757,+006.254,+0.511,+0.725,+2.164,-04.9860,-00.8000,-07.9850,-00.055332,-00.088519,+00.098753
-128.742,-032.903,+006.113,+0.520,+0.686,+2.154,-04.9780,-01.0000,-07.8430,-00.055979,-00.133401,+00.118277
-128.586,-033.121,+005.978,+0.525,+0.715,+2.159,-05.0530,-00.7860,-07.8730,-00.037457,-00.200110,+00.139382
-128.429,-033.389,+005.853,+0.538,+0.700,+2.149,-05.1860,-00.8600,-07.9360,-00.040842,-00.226162,+00.145093
-128.229,-033.716,+005.698,+0.534,+0.661,+2.171,-05.1060,-00.7610,-08.0020,-00.037345,-00.303752,+00.201691
-127.981,-034.140,+005.530,+0.548,+0.695,+2.144,-05.0620,-00.7800,-07.8910,-00.027650,-00.384090,+00.224017
-127.643,-034.698,+005.290,+0.571,+0.675,+2.123,-05.0860,-00.9700,-08.0780,-00.058039,-00.512158,+00.338102
-127.184,-035.487,+004.922,+0.594,+0.670,+2.168,-05.0690,-01.0230,-08.2100,-00.112857,-00.750384,+00.393125
-126.645,-036.692,+004.502,+0.626,+0.670,+2.142,-05.1620,-00.6140,-08.0970,-00.092861,-01.192081,+00.524525
-126.061,-038.472,+004.034,+0.691,+0.639,+2.134,-05.2270,-00.3090,-08.0170,-00.104426,-01.738567,+00.498668
-125.700,-041.005,+003.809,+0.747,+0.639,+2.115,-05.1780,+00.4300,-07.5970,+00.091165,-02.491075,+00.328974
-125.407,-044.515,+003.774,+0.849,+0.657,+2.044,-04.9720,-00.1990,-07.8930,+00.182857,-03.358228,+00.459557
-124.864,-048.851,+003.685,+0.965,+0.675,+1.974,-06.4770,-00.7500,-08.7960,+00.265197,-04.005926,+00.627499
-123.762,-053.973,+002.955,+1.080,+0.639,+1.909,-07.2850,-02.1960,-08.4340,+00.025460,-04.665359,+01.034702
-121.421,-059.812,+000.868,+1.233,+0.603,+1.808,-09.5750,-02.2000,-08.0770,-00.248854,-05.294800,+01.413999
-117.140,-066.155,-003.247,+1.404,+0.581,+1.686,-10.6760,-02.6860,-09.8160,-00.219338,-05.763618,+01.665255
-109.828,-072.416,-010.176,+1.525,+0.519,+1.535,-15.3080,-03.6440,-11.8170,-00.098413,-05.474769,+01.554821
-097.719,-077.242,-022.234,+1.673,+0.488,+1.407,-12.9850,-04.2120,-12.4290,-00.471815,-04.239257,+01.458732
-087.050,-078.259,-033.312,+1.747,+0.417,+1.330,-18.8680,-03.4320,-32.7380,-00.120838,+00.346938,+00.946859
-084.534,-077.052,-035.683,+1.784,+0.387,+1.364,+01.5450,-03.8360,-06.8300,-00.109647,+00.305656,+01.173078
-083.000,-075.486,-037.530,+1.826,+0.377,+1.404,-04.0710,-03.6880,-11.5260,-00.291258,+01.332430,+00.899037
-085.253,-073.449,-035.715,+1.826,+0.333,+1.501,-00.9340,-04.5220,-06.6170,-00.357470,+01.869203,+00.479457
-089.250,-071.432,-032.268,+1.835,+0.353,+1.588,-01.9410,-03.8140,-06.9210,-00.215269,+02.183013,-00.140827
-095.012,-069.318,-026.821,+1.817,+0.369,+1.684,-02.3910,-03.6410,-06.8630,+00.138188,+02.564143,-00.793166
-101.462,-066.991,-020.559,+1.780,+0.395,+1.828,-02.8640,-02.7430,-06.1140,+00.296830,+02.744045,-01.260606
-107.765,-064.413,-014.274,+1.738,+0.445,+1.955,-05.0390,-01.3130,-06.9600,+00.579552,+02.899266,-01.606305
-113.444,-061.399,-008.343,+1.646,+0.565,+2.085,-06.3860,-00.1870,-07.5100,+00.858299,+03.085344,-01.718097
-117.930,-057.968,-003.342,+1.493,+0.701,+2.266,-06.8530,+00.3740,-07.5560,+01.036326,+03.214473,-01.604301
-121.061,-054.379,+000.417,+1.313,+0.758,+2.360,-07.2570,-00.0140,-07.3520,+00.962031,+03.100132,-01.328215
-123.158,-050.756,+003.161,+1.086,+0.810,+2.426,-11.1230,-01.2160,-10.9040,+00.953728,+03.218829,-01.197364
-124.914,-046.790,+005.616,+0.836,+0.822,+2.409,-11.0220,-01.8590,-08.8710,+01.004743,+03.368557,-01.312742
-126.564,-042.919,+007.898,+0.696,+0.794,+2.371,-11.9550,-02.8340,-08.4810,+00.953605,+03.149086,-01.487154
-128.382,-039.176,+010.136,+0.585,+0.800,+2.307,-12.3020,-04.0640,-08.7910,+00.885241,+02.980479,-01.843426
-130.485,-035.489,+012.343,+0.502,+0.791,+2.303,-10.7170,-02.6810,-07.0540,+00.794889,+02.750706,-02.141746
-132.507,-032.372,+014.460,+0.479,+0.825,+2.318,-12.4680,-01.5820,-07.7780,+00.895429,+02.127284,-01.970374
-134.162,-029.614,+016.249,+0.465,+0.880,+2.322,-12.7340,-02.5530,-07.1470,+00.755278,+01.897713,-01.749230
-135.550,-027.041,+017.708,+0.409,+0.945,+2.357,-13.8560,-02.4920,-07.9190,+00.668534,+01.850839,-01.648230
-136.703,-024.253,+018.919,+0.354,+0.970,+2.408,-13.5760,-01.9780,-08.5650,+00.571422,+02.166489,-01.617862
-137.565,-021.258,+019.798,+0.224,+1.061,+2.445,-10.6700,-00.7070,-06.2840,+00.421930,+02.216534,-01.433723
-138.144,-018.511,+020.379,+0.090,+1.082,+2.461,-09.4340,-00.6600,-04.9040,+00.279990,+01.988487,-01.173296
-138.549,-016.240,+020.782,+0.006,+1.098,+2.489,-08.0200,-00.3790,-04.0610,+00.256188,+01.570249,-00.920148
-138.849,-014.492,+021.334,-0.096,+1.143,+2.436,-08.0290,+00.1880,-04.6980,+00.537443,+01.226319,-00.703692
-138.956,-013.049,+022.170,-0.170,+1.169,+2.427,-06.8150,-00.3990,-05.0940,+00.752646,+01.089035,-00.442443
-138.771,-011.892,+022.954,-0.211,+1.223,+2.409,-05.8510,-00.7740,-05.5020,+00.684672,+00.945088,-00.142053
-138.441,-010.986,+023.587,-0.249,+1.209,+2.375,-04.8810,-01.1870,-05.2120,+00.562289,+00.763168,-00.016971
-138.105,-010.342,+024.135,-0.281,+1.234,+2.330,-04.3880,-01.0410,-05.2850,+00.534834,+00.551715,+00.079984
-137.705,-009.919,+024.759,-0.300,+1.278,+2.334,-04.3970,-00.6110,-05.6560,+00.672535,+00.444135,+00.210914
-137.162,-009.666,+025.631,-0.309,+1.293,+2.302,-04.4170,-00.4280,-05.8700,+00.949385,+00.386991,+00.399620
-136.435,-009.566,+026.795,-0.309,+1.327,+2.253,-04.1670,-00.5070,-05.2070,+01.203799,+00.313786,+00.605549
-135.566,-009.742,+028.101,-0.313,+1.362,+2.231,-04.6870,-01.1780,-05.0030,+01.280864,+00.150065,+00.812447
-134.539,-010.142,+029.348,-0.290,+1.406,+2.172,-05.8210,-01.7790,-05.9540,+01.225434,+00.146180,+01.014869
-133.230,-010.601,+030.484,-0.281,+1.460,+2.129,-05.1380,-02.1250,-04.9830,+01.174862,+00.224091,+01.280548
-131.753,-011.304,+031.354,-0.258,+1.489,+2.135,-05.6590,-03.9630,-03.6150,+00.855669,+00.033818,+01.424602
-130.566,-012.231,+031.716,-0.207,+1.543,+2.099,-06.5950,-05.0430,-03.2810,+00.320783,-00.270368,+01.158144
-130.020,-013.252,+031.580,-0.170,+1.513,+2.106,-04.5250,-05.3770,-03.3770,-00.209011,-00.657497,+00.689370
-129.744,-013.837,+030.412,-0.170,+1.479,+2.144,+05.1180,-13.6990,-03.7410,-01.270207,-00.671631,+00.865442
-128.499,-017.154,+027.363,-0.054,+1.433,+2.193,-04.4610,-01.0510,-11.1250,-02.143521,-02.364784,+02.214279
-127.745,-019.921,+025.131,+0.053,+1.353,+2.252,-02.0760,+01.5050,-08.1660,-01.559545,-01.829714,+01.612667
-126.659,-023.065,+023.014,+0.132,+1.328,+2.256,-05.5640,+02.6190,-08.7700,-01.510425,-02.253104,+02.120622
-125.430,-026.406,+020.788,+0.266,+1.248,+2.279,-08.8840,-07.5090,-08.5080,-01.466885,-02.381880,+01.747392
-124.699,-029.203,+018.484,+0.373,+1.187,+2.327,-12.7510,-04.0660,-12.7310,-01.769118,-01.789228,+01.124750
-124.119,-030.814,+016.175,+0.423,+1.143,+2.356,-10.8300,-00.9530,-13.0710,-01.919469,-00.876666,+00.736639
-123.768,-031.621,+014.457,+0.442,+1.073,+2.352,-06.1820,-00.5040,-09.5370,-01.191321,-00.605183,+00.335378
-123.615,-032.153,+013.491,+0.474,+1.048,+2.386,-05.6560,-02.1040,-08.2180,-00.606294,-00.372184,+00.174412
-123.598,-032.608,+013.007,+0.479,+1.004,+2.392,-05.3550,-01.3340,-08.3560,-00.309026,-00.360652,+00.079282
-123.668,-032.965,+012.885,+0.493,+1.018,+2.355,-05.5340,-00.6580,-07.9960,-00.038609,-00.269442,-00.027829
-123.880,-033.192,+013.057,+0.498,+1.048,+2.387,-05.6810,-01.1530,-08.1350,+00.091979,-00.215398,-00.136265
-124.182,-033.388,+013.378,+0.507,+1.008,+2.393,-05.0050,-01.6160,-07.7100,+00.165397,-00.219008,-00.192624
-124.522,-033.594,+013.848,+0.497,+1.043,+2.350,-05.5200,-01.9390,-07.6570,+00.255419,-00.236917,-00.187702
-124.804,-033.783,+014.280,+0.511,+1.023,+2.345,-05.5110,-02.1170,-07.5470,+00.225223,-00.185685,-00.135266
-125.000,-033.925,+014.605,+0.507,+1.023,+2.372,-05.4600,-02.0400,-07.6150,+00.157486,-00.138909,-00.090725
-125.154,-034.032,+014.860,+0.516,+1.043,+2.334,-05.3960,-02.0240,-07.5330,+00.135586,-00.112629,-00.081331
-125.316,-034.144,+015.138,+0.525,+1.062,+2.329,-05.2370,-01.8370,-07.8960,+00.194309,-00.145629,-00.096629
-125.513,-034.299,+015.476,+0.530,+1.062,+2.362,-05.3060,-02.1380,-07.5720,+00.188952,-00.183012,-00.097569
-125.688,-034.492,+015.760,+0.544,+1.072,+2.335,-05.4110,-02.2890,-07.4120,+00.145132,-00.199646,-00.059903
-125.821,-034.684,+015.989,+0.530,+1.087,+2.313,-05.4840,-02.2050,-07.3920,+00.119839,-00.170986,-00.038244
-125.895,-034.843,+016.130,+0.544,+1.057,+2.357,-05.5670,-02.2490,-07.4230,+00.075218,-00.139617,-00.003968
-125.942,-034.984,+016.228,+0.558,+1.092,+2.325,-05.5620,-02.3560,-07.4400,+00.047935,-00.120222,+00.009552
-125.963,-035.098,+016.280,+0.548,+1.077,+2.325,-05.5300,-02.1440,-07.3560,+00.037746,-00.088541,+00.010683
-125.969,-035.174,+016.321,+0.539,+1.077,+2.351,-05.4040,-02.2580,-07.4640,+00.029732,-00.053267,+00.017120
-125.938,-035.238,+016.309,+0.549,+1.112,+2.330,-05.4510,-02.3430,-07.3070,-00.013385,-00.041529,+00.051657
-125.889,-035.297,+016.275,+0.553,+1.082,+2.309,-05.6630,-02.1470,-07.4650,+00.008810,-00.034050,+00.035568
-125.866,-035.328,+016.278,+0.562,+1.072,+2.331,-05.5450,-02.1680,-07.4110,+00.008391,-00.015852,+00.021952
-125.845,-035.348,+016.269,+0.558,+1.087,+2.309,-05.4920,-02.2530,-07.3860,-00.003852,-00.014743,+00.022156
-125.810,-035.362,+016.226,+0.562,+1.057,+2.336,-05.5610,-02.2350,-07.3600,-00.034492,+00.006017,+00.033034
-125.747,-035.339,+016.122,+0.572,+1.067,+2.326,-05.6410,-02.1170,-07.4420,-00.067554,+00.051408,+00.033909
-125.676,-035.279,+016.007,+0.567,+1.062,+2.315,-05.3440,-02.2380,-07.3070,-00.062173,+00.060398,+00.039653
-125.601,-035.252,+015.893,+0.558,+1.067,+2.298,-05.4900,-02.1550,-07.4180,-00.060476,+00.024901,+00.047372
-125.540,-035.247,+015.797,+0.553,+1.077,+2.341,-05.4380,-02.1340,-07.4560,-00.048823,+00.010921,+00.032470
-125.500,-035.244,+015.722,+0.549,+1.087,+2.341,-05.5810,-02.1330,-07.4480,-00.046451,+00.015670,+00.020126
-125.464,-035.211,+015.638,+0.553,+1.052,+2.330,-05.4530,-02.2430,-07.3410,-00.061785,+00.044668,+00.019253
-125.395,-035.185,+015.518,+0.544,+1.042,+2.352,-05.2600,-02.2200,-07.4880,-00.072287,+00.024948,+00.056678
-125.258,-035.187,+015.344,+0.553,+1.052,+2.336,-05.4130,-02.2570,-07.4580,-00.097352,+00.028343,+00.119621
-124.984,-035.165,+015.004,+0.562,+1.037,+2.309,-05.3540,-02.3820,-07.2200,-00.207990,+00.100676,+00.222767
-124.519,-035.088,+014.410,+0.553,+1.042,+2.363,-05.3310,-02.3420,-07.2660,-00.316572,+00.168789,+00.342161
-124.043,-035.011,+013.812,+0.562,+1.037,+2.342,-05.3360,-01.8330,-07.5730,-00.272727,+00.138941,+00.291082
-123.645,-034.971,+013.291,+0.562,+1.012,+2.326,-05.3240,-01.7360,-07.6290,-00.240155,+00.076749,+00.248827
-123.308,-034.997,+012.806,+0.562,+0.998,+2.347,-05.2630,-01.6430,-07.4590,-00.292258,+00.014358,+00.245559
-122.917,-035.080,+012.193,+0.562,+1.003,+2.358,-05.4760,-01.7680,-07.5710,-00.342284,-00.025927,+00.314377
-122.482,-035.210,+011.595,+0.572,+1.003,+2.385,-05.5820,-01.4570,-07.5230,-00.285992,-00.072341,+00.330425
-122.022,-035.418,+011.027,+0.590,+0.948,+2.387,-05.4070,-01.4630,-07.7120,-00.231168,-00.143760,+00.373154
-121.528,-035.734,+010.511,+0.590,+0.958,+2.376,-05.4940,-01.4560,-07.7350,-00.183640,-00.249066,+00.404406
-121.147,-036.245,+010.072,+0.618,+0.953,+2.382,-05.2590,-01.2500,-07.7820,-00.192937,-00.485036,+00.302513
-120.912,-037.064,+009.754,+0.641,+0.948,+2.394,-05.3850,-01.3260,-07.9420,-00.140017,-00.793837,+00.279918
-120.711,-038.293,+009.457,+0.669,+0.932,+2.352,-05.6530,-01.3450,-07.5760,-00.149907,-01.170477,+00.326856
-120.552,-039.956,+009.189,+0.734,+0.917,+2.350,-05.5460,-01.1150,-07.6970,-00.172790,-01.575830,+00.351142
-120.398,-042.148,+008.866,+0.785,+0.902,+2.331,-05.8800,-01.2100,-07.5270,-00.175622,-02.050986,+00.414074
-120.063,-045.009,+008.474,+0.887,+0.915,+2.276,-05.7400,-01.6150,-07.3230,-00.110722,-02.667799,+00.678040
-119.433,-048.565,+008.045,+1.007,+0.874,+2.222,-06.0890,-01.8860,-08.1410,+00.063696,-03.175040,+00.915279
-118.350,-052.722,+007.288,+1.100,+0.888,+2.188,-07.0280,-01.8790,-07.7270,+00.060185,-03.731143,+01.202095
-116.411,-057.572,+005.602,+1.248,+0.846,+2.087,-08.9150,-02.9100,-08.9680,-00.210651,-04.325967,+01.591556
-113.064,-063.117,+002.291,+1.428,+0.770,+1.961,-10.7950,-01.4310,-09.3230,-00.333274,-04.935249,+01.826552
-107.381,-069.177,-003.235,+1.562,+0.713,+1.843,-12.3060,-03.2110,-10.3430,-00.211919,-05.477897,+01.997178
-097.299,-074.875,-013.036,+1.715,+0.691,+1.656,-12.9580,-02.9280,-10.5280,-00.216825,-05.114205,+02.019798
-079.759,-078.623,-030.504,+1.821,+0.595,+1.478,-08.3260,-07.2970,-10.9350,-00.665555,-03.515045,+02.226818
-070.966,-078.622,-040.434,+1.858,+0.521,+1.437,-06.0040,-10.2620,-24.3850,-00.986156,+01.008907,+00.192814
-075.290,-077.967,-037.073,+1.868,+0.525,+1.448,+00.9730,-05.8450,-12.5220,-00.738232,+00.929244,-00.335006
-082.419,-076.613,-030.783,+1.849,+0.506,+1.496,-00.3320,-03.9880,-13.2500,-00.476507,+02.140110,-00.531006
-089.637,-074.282,-024.320,+1.854,+0.536,+1.577,-00.4780,-03.3730,-11.0210,-00.476027,+02.731633,-00.431430
-095.780,-071.191,-019.023,+1.835,+0.502,+1.662,-01.9590,-03.0740,-09.6420,-00.497180,+03.321554,-00.531056
-101.241,-067.446,-014.339,+1.822,+0.498,+1.786,-03.5610,-03.2220,-08.7210,-00.267987,+03.771903,-00.802191
-106.446,-063.407,-009.603,+1.780,+0.519,+1.994,-04.5020,-03.0910,-07.3820,+00.170434,+03.816007,-01.317787
-111.521,-059.374,-004.769,+1.711,+0.630,+2.217,-06.6400,-03.2650,-07.3750,+00.371920,+03.702369,-01.844823
-116.123,-055.327,-000.500,+1.526,+0.741,+2.445,-08.8070,-02.9100,-08.1910,+00.317372,+03.593265,-02.063589
-120.015,-051.239,+002.920,+1.327,+0.848,+2.582,-09.8170,-03.4860,-07.9800,+00.223977,+03.448617,-02.125373
-123.346,-047.287,+005.618,+1.091,+0.959,+2.657,-11.4290,-04.1570,-08.5390,+00.132179,+03.198058,-02.156728
-126.318,-043.342,+008.003,+0.878,+1.026,+2.701,-13.7770,-04.0590,-09.4550,+00.301791,+03.231988,-02.269336
-129.048,-039.495,+010.234,+0.693,+1.078,+2.752,-12.4240,-03.7740,-05.9320,+00.399467,+02.825986,-02.297654
-131.667,-036.313,+012.360,+0.438,+1.125,+2.746,-12.2620,-04.0770,-05.0680,+00.504196,+02.091380,-02.331257
-134.296,-033.694,+014.452,+0.183,+1.117,+2.740,-13.1670,-04.3770,-06.7960,+00.477074,+01.646550,-02.352487
-136.684,-031.266,+016.202,-0.012,+1.050,+2.667,-12.9610,-03.2730,-08.0290,+00.406144,+01.571453,-02.186021
-138.778,-028.599,+018.048,-0.156,+0.976,+2.489,-14.7720,-02.7570,-09.9570,+00.895096,+01.977933,-02.263718
-140.530,-025.200,+019.950,-0.198,+0.867,+2.342,-13.0270,-02.9390,-08.2410,+00.902984,+02.538728,-02.170750
-141.529,-021.647,+021.275,-0.184,+0.832,+2.289,-10.4280,+00.5110,-06.3240,+00.819138,+02.619787,-01.620406
-141.759,-018.373,+022.547,-0.161,+0.876,+2.257,-09.8660,+01.4330,-05.9470,+01.173560,+02.561105,-01.011179
-141.303,-015.454,+023.894,-0.175,+0.906,+2.262,-09.3760,+00.3130,-05.1510,+01.336942,+02.426957,-00.462126
-140.447,-012.921,+025.251,-0.193,+0.985,+2.287,-09.3010,-00.2890,-04.8830,+01.389143,+02.256409,-00.180976
-139.454,-010.707,+026.679,-0.258,+1.104,+2.273,-08.0470,-00.5190,-04.0760,+01.425046,+01.999819,-00.021358
-138.410,-008.911,+028.113,-0.323,+1.199,+2.264,-08.0050,-00.3540,-02.9020,+01.385235,+01.678010,+00.138962
-137.414,-007.618,+029.452,-0.369,+1.274,+2.261,-08.2020,-00.5150,-01.6190,+01.230054,+01.224889,+00.242017
-136.603,-006.881,+030.543,-0.402,+1.353,+2.216,-07.9950,-00.9950,-01.4060,+00.890921,+00.720884,+00.332757
-135.884,-006.722,+031.152,-0.425,+1.388,+2.210,-06.9570,-00.9890,-02.5400,+00.472972,+00.284762,+00.545289
-135.191,-007.008,+031.543,-0.429,+1.422,+2.247,-06.1800,-01.7450,-03.1790,+00.394397,-00.008618,+00.684898
-134.699,-007.628,+031.874,-0.415,+1.467,+2.226,-05.9570,-02.4150,-02.9470,+00.306877,-00.384869,+00.596356
-134.643,-008.547,+032.115,-0.392,+1.501,+2.259,-06.8610,-02.4360,-02.9900,+00.145019,-00.813167,+00.390861
-135.005,-009.671,+032.058,-0.350,+1.511,+2.293,+18.9180,-10.1620,-07.5780,-00.413297,-01.071797,+00.086827
-134.935,-011.614,+030.375,-0.313,+1.511,+2.338,+03.2320,-03.3180,-00.2830,-01.919413,-02.030991,+01.767633
-133.987,-015.317,+027.842,-0.165,+1.465,+2.442,-03.3730,-01.6210,-11.4510,-01.748253,-02.392407,+01.982505
-133.339,-019.156,+025.899,-0.058,+1.455,+2.511,-04.9980,-00.5080,-09.2990,-01.421289,-02.962227,+02.079772
-132.636,-023.073,+024.258,+0.104,+1.434,+2.572,-08.5860,-01.0630,-11.4260,-01.131293,-02.765837,+01.955442
-131.861,-026.591,+022.594,+0.248,+1.412,+2.579,-10.3020,-06.9900,-10.4170,-01.335361,-02.463895,+01.654100
-131.399,-029.446,+020.541,+0.332,+1.367,+2.658,-12.1610,-03.0600,-12.0690,-01.781814,-01.949817,+01.056581
-130.990,-031.036,+018.314,+0.406,+1.322,+2.678,-09.4760,-03.1710,-10.1580,-01.524735,-00.784500,+00.552358
-130.750,-031.984,+016.531,+0.438,+1.248,+2.712,-06.7910,-01.0150,-09.1480,-01.233059,-00.589526,+00.351109
-130.549,-032.543,+015.252,+0.470,+1.218,+2.735,-06.1170,-00.0920,-08.8870,-00.788758,-00.299282,+00.253509
-130.387,-032.855,+014.493,+0.484,+1.198,+2.736,-05.7590,-01.5400,-08.1040,-00.495063,-00.191726,+00.152364
-130.331,-033.036,+014.068,+0.466,+1.184,+2.752,-05.2230,-01.2750,-07.9810,-00.252747,-00.126617,+00.023894
-130.426,-033.174,+013.944,+0.494,+1.183,+2.758,-05.4290,-01.8130,-08.1550,-00.063258,-00.113064,-00.067195
-130.532,-033.274,+013.951,+0.489,+1.198,+2.758,-05.3180,-02.2850,-07.6420,-00.076481,-00.113621,-00.028103
-130.544,-033.380,+013.847,+0.489,+1.174,+2.753,-05.7370,-02.1140,-07.7400,-00.100654,-00.072842,+00.031774
-130.481,-033.462,+013.702,+0.498,+1.164,+2.796,-05.2390,-01.9110,-07.7520,-00.088794,-00.054611,+00.079637
-130.372,-033.556,+013.537,+0.503,+1.168,+2.753,-05.4250,-01.8280,-07.7110,-00.095359,-00.057988,+00.097009
-130.288,-033.645,+013.427,+0.503,+1.188,+2.769,-05.3960,-01.7050,-07.7440,-00.030489,-00.070936,+00.064984
-130.232,-033.733,+013.337,+0.503,+1.154,+2.791,-05.2770,-01.8240,-07.6920,-00.053968,-00.072007,+00.053944
-130.189,-033.846,+013.271,+0.507,+1.159,+2.775,-05.2550,-01.7190,-07.6580,-00.022718,-00.096261,+00.050127
-130.163,-033.993,+013.267,+0.517,+1.158,+2.754,-05.2990,-01.6740,-07.7090,+00.033082,-00.137696,+00.038551
-130.171,-034.158,+013.326,+0.521,+1.173,+2.781,-05.4120,-01.7750,-07.5990,+00.049435,-00.138655,+00.025016
-130.170,-034.298,+013.364,+0.526,+1.168,+2.765,-05.4120,-01.8820,-07.6500,+00.027347,-00.109100,+00.032560
-130.158,-034.432,+013.392,+0.531,+1.163,+2.760,-05.3790,-01.7450,-07.6700,+00.034570,-00.115317,+00.034888
-130.151,-034.579,+013.427,+0.535,+1.153,+2.782,-05.4180,-01.8740,-07.5920,+00.035292,-00.125713,+00.037888
-130.146,-034.727,+013.477,+0.540,+1.188,+2.760,-05.4020,-01.8230,-07.6350,+00.054448,-00.122135,+00.030413
-130.152,-034.871,+013.560,+0.545,+1.173,+2.750,-05.4930,-01.8300,-07.5860,+00.075126,-00.124577,+00.020687
-130.175,-035.006,+013.671,+0.563,+1.193,+2.761,-05.5260,-01.7250,-07.6130,+00.080755,-00.116460,+00.009141
-130.185,-035.124,+013.731,+0.549,+1.183,+2.745,-05.5170,-01.9040,-07.4720,+00.025217,-00.092990,+00.024215
-130.159,-035.222,+013.722,+0.563,+1.197,+2.745,-05.5080,-01.9250,-07.4530,-00.003449,-00.070203,+00.049732
-130.089,-035.304,+013.669,+0.563,+1.178,+2.772,-05.4390,-01.9370,-07.4940,-00.016305,-00.049847,+00.078142
-129.957,-035.361,+013.568,+0.577,+1.187,+2.746,-05.5180,-01.9060,-07.5660,-00.024656,-00.006655,+00.119327
-129.736,-035.359,+013.385,+0.572,+1.168,+2.746,-05.5070,-02.0090,-07.5570,-00.064056,+00.067563,+00.176512
-129.419,-035.282,+013.091,+0.577,+1.163,+2.746,-05.5700,-01.7770,-07.4190,-00.122564,+00.144760,+00.216301
-129.027,-035.164,+012.681,+0.577,+1.163,+2.751,-05.5030,-01.8310,-07.4490,-00.167132,+00.154627,+00.265284
-128.613,-035.082,+012.245,+0.568,+1.163,+2.767,-05.4400,-01.6020,-07.5710,-00.164508,+00.114209,+00.264599
-128.264,-035.062,+011.864,+0.563,+1.124,+2.783,-05.3320,-01.5810,-07.6250,-00.159141,+00.043124,+00.226310
-127.943,-035.120,+011.485,+0.572,+1.153,+2.778,-05.3170,-01.5260,-07.6040,-00.171353,-00.034371,+00.240817
-127.578,-035.272,+011.013,+0.582,+1.133,+2.779,-05.4130,-01.5120,-07.6690,-00.240990,-00.096776,+00.312446
-127.131,-035.486,+010.503,+0.595,+1.094,+2.796,-05.5460,-01.5260,-07.5780,-00.199906,-00.153189,+00.359665
-126.661,-035.787,+010.029,+0.609,+1.098,+2.775,-05.4140,-01.4480,-07.5950,-00.192115,-00.233297,+00.393692
-126.098,-036.203,+009.483,+0.619,+1.083,+2.770,-05.1950,-01.2000,-07.6970,-00.185532,-00.348981,+00.484130
-125.559,-036.789,+008.977,+0.637,+1.063,+2.787,-05.4730,-00.9560,-07.7110,-00.130238,-00.503106,+00.446674
-125.070,-037.636,+008.511,+0.684,+1.088,+2.778,-05.5180,-01.1650,-07.6760,-00.151243,-00.790929,+00.458717
-124.577,-038.873,+008.052,+0.734,+1.053,+2.775,-05.5190,-00.9740,-07.6880,-00.139473,-01.171677,+00.510967
-124.125,-040.593,+007.578,+0.790,+1.052,+2.756,-05.6720,-00.6300,-07.3520,-00.173800,-01.620283,+00.505869
-123.789,-042.863,+007.173,+0.883,+1.090,+2.744,-05.7770,-00.5950,-07.2370,-00.167734,-02.134053,+00.480395
-123.408,-045.682,+006.748,+0.985,+1.040,+2.700,-05.8540,-00.9920,-07.4060,-00.091916,-02.567889,+00.596139
-122.795,-048.925,+006.319,+1.087,+1.039,+2.651,-06.6170,-01.2010,-07.4860,+00.062104,-02.909735,+00.724861
-121.909,-052.618,+005.734,+1.226,+1.032,+2.581,-07.0450,-01.2680,-07.0640,+00.119378,-03.325320,+00.904605
-120.512,-056.903,+004.766,+1.378,+1.005,+2.496,-08.1440,-01.6330,-07.4480,+00.137143,-03.854095,+01.124066
-118.540,-061.888,+003.268,+1.513,+0.974,+2.400,-09.0620,-01.3650,-07.0620,+00.175035,-04.499112,+01.198355
-115.517,-067.541,+000.908,+1.684,+0.981,+2.246,-09.8050,-01.2470,-08.0380,+00.341359,-05.192560,+01.393378
-109.640,-073.790,-004.118,+1.869,+0.909,+2.033,-13.0820,-02.0660,-10.3260,+00.554940,-05.571994,+01.605484
-097.238,-079.488,-015.255,+1.966,+0.902,+1.876,-12.0020,-00.2270,-10.4010,+00.967952,-05.049341,+01.607042
-076.386,-083.005,-034.013,+2.059,+0.920,+1.675,-07.8150,-03.0530,-09.8200,+01.908049,-03.233004,+01.149450
-067.414,-081.928,-040.820,+2.035,+0.866,+1.636,-10.2700,-10.4130,-24.9310,+01.478102,+02.440617,+01.018233
-070.550,-079.092,-037.280,+1.957,+0.852,+1.703,+00.8880,-06.4130,-08.1680,-00.267061,+01.852068,+01.319577
-072.835,-076.421,-035.623,+1.873,+0.824,+1.759,-03.1910,-04.7240,-10.4610,-00.447136,+02.306703,+00.800575
-077.288,-073.796,-031.670,+1.753,+0.771,+1.803,-01.4510,-05.0350,-07.9940,-00.249143,+02.505145,+00.225354
-082.602,-071.277,-026.866,+1.660,+0.742,+1.869,-01.8570,-04.0820,-07.1570,-00.203454,+02.679483,-00.350657
-088.703,-068.649,-021.086,+1.563,+0.763,+1.908,-03.4480,-03.3230,-07.5170,+00.212025,+02.948823,-00.983717
-095.441,-065.762,-014.468,+1.461,+0.755,+1.962,-04.5050,-03.5970,-07.4130,+00.375592,+03.147808,-01.631689
-102.164,-062.610,-008.039,+1.373,+0.780,+1.975,-05.5480,-02.0810,-07.0310,+00.308511,+03.199751,-02.143036
-108.250,-059.241,-002.229,+1.289,+0.791,+2.041,-06.7590,+00.1530,-07.4460,+00.528173,+03.135120,-02.354970
-113.051,-055.623,+002.528,+1.252,+0.777,+2.093,-08.1170,-00.5950,-07.8790,+00.591082,+03.170066,-02.166090
-116.294,-051.885,+005.558,+1.220,+0.803,+2.237,-09.6300,-01.5240,-08.6240,+00.233464,+03.110332,-01.742197
-118.550,-047.979,+007.576,+1.081,+0.904,+2.365,-12.2160,-02.2160,-10.2170,+00.303674,+03.353685,-01.638781
-120.443,-043.935,+009.346,+0.933,+1.015,+2.488,-11.7620,-03.7820,-07.3740,+00.340294,+03.216460,-01.661395
-122.242,-040.188,+010.773,+0.767,+1.110,+2.512,-13.1020,-05.0960,-07.6710,+00.118619,+02.917521,-01.781065
-124.319,-036.589,+012.210,+0.530,+1.231,+2.560,-12.9220,-05.4070,-07.7270,+00.162132,+02.719660,-02.182476
-126.800,-033.181,+013.881,+0.327,+1.278,+2.562,-11.1520,-04.1820,-05.5490,+00.277476,+02.269733,-02.473573
-129.377,-030.108,+015.670,+0.160,+1.295,+2.565,-15.1030,-04.1510,-08.5970,+00.396352,+02.152540,-02.579940
-131.765,-026.898,+017.192,+0.016,+1.281,+2.494,-13.0190,-02.9870,-06.1700,+00.295450,+02.109446,-02.500315
-133.973,-023.856,+018.496,-0.096,+1.227,+2.463,-12.2020,-02.8850,-05.5320,+00.353410,+01.922329,-02.485012
-136.238,-020.953,+019.844,-0.179,+1.189,+2.443,-11.1180,-03.5680,-05.2090,+00.437575,+01.704147,-02.590862
-138.469,-018.193,+020.941,-0.262,+1.219,+2.423,-10.5920,-03.1060,-05.5810,+00.200725,+01.585726,-02.512845
-140.436,-015.635,+021.578,-0.351,+1.146,+2.414,-09.2850,-01.7970,-04.0930,-00.025031,+01.393250,-02.217523
-142.129,-013.499,+021.812,-0.402,+1.141,+2.434,-08.8350,-01.8530,-03.8500,-00.243712,+01.097525,-01.917091
-143.662,-011.721,+021.924,-0.462,+1.122,+2.415,-07.8540,-01.2980,-04.4570,-00.115603,+00.879722,-01.718659
-145.058,-010.232,+022.294,-0.504,+1.098,+2.419,-06.0780,-01.7150,-03.9360,+00.198326,+00.653354,-01.514823
-146.359,-009.065,+022.852,-0.541,+1.098,+2.444,-07.0630,-02.9080,-04.6170,+00.317553,+00.469889,-01.405777
-147.810,-008.068,+023.232,-0.559,+1.098,+2.411,-06.2400,-04.1870,-02.5790,-00.015896,+00.145075,-01.568161
-149.698,-007.508,+023.107,-0.592,+1.059,+2.415,-05.9570,-03.5580,-01.3160,-00.515061,-00.421562,-01.749312
-151.984,-007.547,+022.616,-0.578,+1.010,+2.470,-06.3640,-03.7560,-02.5740,-00.741413,-00.988550,-01.873755
-154.716,-007.876,+022.224,-0.564,+1.015,+2.497,-06.4960,-04.0250,-03.5780,-00.582328,-01.249990,-02.205443
-157.850,-008.387,+022.081,-0.550,+0.921,+2.537,-06.0500,-03.8070,-02.6160,-00.508989,-01.574930,-02.386495
-161.150,-009.312,+021.870,-0.518,+0.901,+2.587,-07.6060,-03.2760,-01.8380,-00.730262,-01.951474,-02.273387
-164.193,-010.619,+021.766,-0.453,+0.866,+2.606,+19.0690,+03.2750,-13.2920,+00.222612,-01.722609,-01.637098
-167.009,-012.119,+022.401,-0.397,+0.880,+2.635,+03.4940,-00.1400,-04.3370,-00.079222,-02.663407,-01.144210
-168.878,-015.346,+022.789,-0.286,+0.854,+2.646,-06.1690,+01.2280,-12.1270,-00.027105,-03.281316,-00.116790
-169.688,-018.867,+022.845,-0.142,+0.888,+2.695,-05.0640,+05.2370,-11.0790,-00.169598,-03.041856,+01.032737
-169.646,-022.433,+022.830,+0.016,+0.926,+2.723,-06.9150,-01.4600,-09.0410,+00.042091,-02.752700,+01.281362
-169.415,-026.148,+022.447,+0.132,+0.915,+2.728,-06.0530,-05.8390,-07.5260,-00.527979,-03.025685,+01.499939
-168.672,-029.901,+020.136,+0.303,+0.859,+2.731,-13.4280,-08.3510,-12.7540,-02.449394,-02.495179,+01.802281
-167.319,-031.612,+016.526,+0.391,+0.759,+2.768,-08.5520,+04.0440,-08.6340,-01.952692,-00.647871,+01.099528
-166.611,-032.136,+014.825,+0.405,+0.735,+2.801,-05.6910,-02.6120,-06.1830,-00.853396,-00.266291,+00.450023
-166.326,-032.430,+014.075,+0.419,+0.700,+2.786,-06.5590,+00.0060,-09.0810,-00.305866,-00.100216,+00.166576
-166.233,-032.531,+013.820,+0.423,+0.665,+2.775,-05.5800,-01.8460,-07.9950,-00.153128,-00.070787,+00.077564
-166.232,-032.561,+013.778,+0.423,+0.660,+2.802,-05.4790,-01.6160,-07.9450,+00.011577,-00.005692,-00.027787
-166.302,-032.555,+013.867,+0.423,+0.695,+2.786,-05.5010,-01.4920,-07.9040,+00.075492,-00.001732,-00.071958
-166.436,-032.507,+014.060,+0.419,+0.670,+2.775,-05.2800,-02.1290,-07.6670,+00.110422,+00.023996,-00.116589
-166.580,-032.422,+014.247,+0.414,+0.690,+2.796,-05.0450,-01.9280,-07.5880,+00.083489,+00.053239,-00.121918
-166.694,-032.357,+014.355,+0.419,+0.705,+2.786,-04.7780,-02.2920,-07.4490,+00.010018,+00.017154,-00.077385
-166.749,-032.324,+014.343,+0.414,+0.690,+2.764,-05.0940,-02.0330,-07.7010,-00.057648,+00.023264,-00.032896
-166.751,-032.290,+014.233,+0.414,+0.685,+2.807,-04.9330,-02.1920,-07.5370,-00.118500,+00.025602,+00.004262
-166.729,-032.277,+014.071,+0.414,+0.700,+2.791,-05.1930,-01.9000,-07.7600,-00.133737,+00.014517,+00.016644
-166.681,-032.266,+013.871,+0.409,+0.660,+2.775,-05.0030,-01.9370,-07.8260,-00.167762,+00.012202,+00.048191
-166.586,-032.279,+013.641,+0.405,+0.675,+2.807,-05.1840,-01.8870,-07.8370,-00.150627,+00.001761,+00.080726
-166.471,-032.299,+013.433,+0.419,+0.685,+2.796,-05.2580,-01.7240,-07.8600,-00.119069,+00.005325,+00.086422
-166.371,-032.316,+013.269,+0.409,+0.675,+2.796,-05.2760,-01.5760,-07.8410,-00.078598,-00.001689,+00.061411
-166.325,-032.332,+013.194,+0.419,+0.660,+2.786,-05.3300,-01.6390,-07.8510,-00.027009,-00.006769,+00.026268
-166.296,-032.360,+013.151,+0.419,+0.685,+2.786,-05.1270,-01.7690,-07.7920,-00.029723,-00.028944,+00.031633
-166.268,-032.407,+013.106,+0.414,+0.675,+2.780,-05.1880,-01.7250,-07.7980,-00.024066,-00.038005,+00.025725
-166.247,-032.455,+013.075,+0.414,+0.646,+2.813,-05.1170,-01.6880,-07.7300,-00.015820,-00.033828,+00.026128
-166.224,-032.506,+013.048,+0.423,+0.685,+2.791,-05.1840,-01.6720,-07.7890,-00.014470,-00.042011,+00.027052
-166.200,-032.561,+013.018,+0.414,+0.665,+2.759,-05.1070,-01.6890,-07.7530,-00.019307,-00.041804,+00.029450
-166.174,-032.601,+012.977,+0.419,+0.641,+2.797,-05.1450,-01.6380,-07.7360,-00.024478,-00.027104,+00.025758
-166.133,-032.634,+012.915,+0.437,+0.685,+2.787,-05.0910,-01.6470,-07.8190,-00.038975,-00.023807,+00.042831
-166.063,-032.674,+012.836,+0.432,+0.655,+2.776,-05.1710,-01.8350,-07.7650,-00.041781,-00.015704,+00.071804
-165.929,-032.695,+012.703,+0.437,+0.650,+2.808,-05.0200,-01.7580,-07.6830,-00.057135,+00.013030,+00.117298
-165.746,-032.707,+012.537,+0.423,+0.665,+2.797,-05.1640,-01.6780,-07.8380,-00.067910,+00.023995,+00.145715
-165.518,-032.703,+012.302,+0.432,+0.645,+2.787,-05.2670,-01.6010,-07.8780,-00.112707,+00.052218,+00.174232
-165.246,-032.682,+012.011,+0.423,+0.680,+2.813,-05.2370,-01.8200,-07.6870,-00.136241,+00.058908,+00.203155
-164.946,-032.652,+011.673,+0.419,+0.640,+2.781,-05.2770,-01.6170,-07.7200,-00.150401,+00.069642,+00.209337
-164.656,-032.616,+011.340,+0.428,+0.616,+2.792,-05.1400,-01.3430,-07.8040,-00.151153,+00.065456,+00.195819
-164.426,-032.606,+011.070,+0.423,+0.601,+2.819,-05.2680,-01.2800,-07.8170,-00.115944,+00.026671,+00.145191
-164.256,-032.630,+010.864,+0.428,+0.640,+2.792,-05.2220,-01.3710,-07.8580,-00.087547,-00.016107,+00.119574
-164.121,-032.697,+010.709,+0.423,+0.611,+2.797,-05.1590,-01.2090,-07.8300,-00.056006,-00.051820,+00.096761
-164.007,-032.787,+010.596,+0.442,+0.596,+2.820,-05.2410,-01.4280,-07.8180,-00.044792,-00.067461,+00.100350
-163.883,-032.889,+010.467,+0.437,+0.616,+2.798,-05.1910,-01.3770,-07.8240,-00.058032,-00.069263,+00.106701
-163.745,-033.008,+010.313,+0.451,+0.596,+2.799,-05.4320,-01.3090,-07.7950,-00.071310,-00.092997,+00.121643
-163.624,-033.128,+010.162,+0.446,+0.591,+2.809,-05.4280,-01.1580,-07.8560,-00.071148,-00.088288,+00.095384
-163.550,-033.223,+010.045,+0.451,+0.616,+2.804,-05.4100,-01.1830,-07.7780,-00.066012,-00.060324,+00.049727
-163.495,-033.283,+009.928,+0.451,+0.606,+2.798,-05.2070,-01.4910,-07.7520,-00.085431,-00.042785,+00.058679
-163.388,-033.335,+009.749,+0.451,+0.591,+2.820,-05.3540,-01.3840,-07.6990,-00.118845,-00.022359,+00.098939
-163.250,-033.368,+009.519,+0.460,+0.591,+2.799,-05.2990,-00.9130,-07.7650,-00.138300,-00.010124,+00.096951
-163.158,-033.382,+009.338,+0.446,+0.576,+2.777,-05.1940,-01.0050,-07.8770,-00.101935,-00.000412,+00.059477
-163.097,-033.397,+009.213,+0.456,+0.571,+2.804,-05.2790,-01.0550,-07.7890,-00.073177,-00.011417,+00.037671
-163.050,-033.429,+009.098,+0.460,+0.591,+2.804,-05.1130,-01.1520,-07.8110,-00.082553,-00.028596,+00.043336
-162.984,-033.479,+008.959,+0.456,+0.561,+2.799,-05.2290,-01.0480,-07.7900,-00.097400,-00.043878,+00.055345
-162.928,-033.542,+008.805,+0.456,+0.556,+2.815,-05.3320,-00.9380,-07.8290,-00.098699,-00.053907,+00.041947
-162.861,-033.625,+008.665,+0.469,+0.571,+2.794,-05.3530,-01.0750,-07.8710,-00.088830,-00.075570,+00.075977
-162.745,-033.718,+008.482,+0.488,+0.561,+2.806,-05.2860,-01.1670,-07.8000,-00.127202,-00.062941,+00.116519
-162.530,-033.845,+008.163,+0.469,+0.531,+2.789,-05.1180,-01.3470,-07.8220,-00.196504,-00.114321,+00.213585
-162.234,-034.091,+007.754,+0.488,+0.526,+2.795,-05.1930,-00.8840,-07.7950,-00.232080,-00.213669,+00.236350
-161.941,-034.475,+007.326,+0.502,+0.521,+2.818,-05.0940,-00.9070,-07.9310,-00.228390,-00.364106,+00.260445
-161.669,-035.077,+006.927,+0.516,+0.501,+2.818,-05.1730,-00.9540,-08.0290,-00.205910,-00.582381,+00.261352
-161.420,-035.980,+006.540,+0.548,+0.501,+2.787,-05.1820,-00.9630,-08.0410,-00.232242,-00.886828,+00.275382
-161.160,-037.293,+006.119,+0.599,+0.471,+2.774,-05.2540,-00.9620,-07.9260,-00.224354,-01.271209,+00.324744
-160.831,-039.176,+005.637,+0.655,+0.470,+2.803,-05.3510,-00.9680,-07.6310,-00.254278,-01.846654,+00.434481
-160.332,-041.799,+004.912,+0.766,+0.444,+2.738,-05.7820,-00.9570,-07.7870,-00.411469,-02.502332,+00.636441
-159.429,-045.164,+003.680,+0.896,+0.408,+2.685,-06.2230,-01.1690,-08.3830,-00.630352,-03.071760,+00.888122
-157.903,-049.030,+001.754,+1.011,+0.387,+2.663,-06.8500,-01.2840,-08.0320,-00.861941,-03.390336,+01.214401
-155.385,-053.235,-001.519,+1.164,+0.316,+2.584,-08.8860,-02.7860,-08.2300,-01.350563,-03.733891,+01.466001
-151.192,-057.172,-007.102,+1.317,+0.190,+2.500,-11.5350,-04.3800,-09.4800,-02.211943,-03.423828,+02.044948
-145.218,-059.834,-014.975,+1.400,+0.065,+2.456,-11.7860,-05.6810,-09.8660,-02.671008,-02.386628,+02.362877
-137.993,-060.529,-025.539,+1.418,-0.143,+2.366,-11.0790,-08.8810,-08.0530,-04.689360,-01.282257,+02.898924
-131.358,-059.941,-038.942,+1.417,-0.455,+2.266,-04.7260,-12.2410,-07.4480,-07.900301,-01.067807,+02.268043
-133.634,-060.618,-043.713,+1.403,-0.589,+2.191,-08.7560,-06.5870,-12.8980,-04.582226,+00.974912,-02.620940
